accel_x,accel_y,accel_z
0.05102170794985855,0.85289835876052,0.9029141743441488
0.06293595690708634,0.8431495799925411,0.7127472107374194
0.22015126951980335,0.9678045329873634,0.7228348846758637
0.391930602871072,0.9616312360763896,0.5248587941512518
0.46131693428170695,1.0007945695831972,0.300639739226567
0.6078739658488381,1.0096210548195277,0.07122259727824405
0.6838551201327495,0.9840063810002003,-0.15145757871401602
0.733156212616844,0.9958386098091163,-0.383135903810733
0.8485749860510554,1.010155864521109,-0.5941396882900428
0.8095377957630381,0.9666897901424599,-0.6761700692716631
0.9595073177119127,0.9598991000377729,-0.8250311813200027
0.9724721192284331,0.9848800440222131,-0.7946334677824864
0.9485295022633528,0.8270470731055013,-1.0824947662559468
0.992843025275442,0.8311508894728199,-1.0369544819808034
0.924649487665759,0.8377499937040962,-0.8720945262279709
0.9458012287371453,0.7853480874016424,-0.8875603357332206
0.9116899775483278,0.7399109895165855,-0.7351490481499832
0.8469125031918452,0.6608378687725117,-0.6742282814244657
0.7787361831478594,0.7162425342039438,-0.5023046392624938
0.5634966388109117,0.6141391360760982,-0.33689638275988837
0.5365985841700056,0.4357819067436728,-0.1095833152006826
0.51062733505854,0.5443700374100613,0.09275995537927116
0.43317304908345994,0.30783378384936083,0.36576983311873923
0.16083393639618224,0.3828990833669697,0.43120612115192947
0.12363379611622381,0.27086348411025857,0.7605051176096094
-0.049313381627964545,0.1297974276073851,0.8854226912710195
-0.06399919125073375,0.1518572589895799,0.9930254821515304
-0.24708109038196993,0.0353832999215047,1.0097914371551568
-0.397972716638485,-0.07518277817732492,0.9419224215026577
-0.4905606680637874,-0.08815785269847673,0.8952124346936987
-0.538357867706014,-0.1401011517529659,0.8844982956815741
-0.7164795092628155,-0.2776923329203291,0.7440525428599768
-0.7480166730514133,-0.34468767619000407,0.6153799718908475
-0.8183010169574088,-0.42708176647316715,0.48959024129306833
-0.8634689011229486,-0.5528470000205571,0.2762137602865416
-0.886155067227562,-0.5726372335200781,0.12137506775819298
-1.0165738163972744,-0.6265659517200157,-0.08354891677375008
-1.0446185304458442,-0.7271063582585513,-0.3288292192372722
-0.8935910159623477,-0.7544324176063029,-0.4432163998032996
-0.8890139616842724,-0.8371881124303242,-0.6429344368745599
-0.9853137487238187,-0.895689557970079,-0.7499922624326355
-0.9072952413409815,-0.8869709326276527,-0.8444435908841412
-0.7993793176198518,-0.924198919078838,-0.9765168005442552
-0.7748671580256269,-0.9943199553054367,-0.958252974659905
-0.621643041245284,-0.9988429892397578,-0.9461561707325461
-0.5916252631213117,-0.9284376031670178,-0.935629510679447
-0.5398008124828084,-0.9439121655996138,-0.8283774498874096
-0.4075869331000082,-1.0305888415792752,-0.7007986256067273
-0.2520533168434444,-0.9520737875577423,-0.5425522951981686
-0.1163526674883566,-0.9496488538262661,-0.3147035744492501
0.09582642559207853,-1.0432649432310115,0.03249376318349484
0.13238119319356612,-0.9869056012436486,0.17688067290503995
0.1665170304727098,-0.9197738476548607,0.24354250898292515
0.35032855894526976,-0.7743868971260652,0.4212401684400464
0.47779597333395135,-0.9175897767967088,0.6234763505866964
0.5359121724270071,-0.8628428590354614,0.7890906785370596
0.6631923871586636,-0.8142819426965847,0.978166334081539
0.8133879071423661,-0.7412933386448783,0.9994566211110295
0.8440662406315077,-0.6065127434892322,0.9412463974845863
0.8997258101068875,-0.6374786395619523,0.9697775669915447
0.8961433910438991,-0.5981327450018734,0.9254243311604503
1.0636898410572058,-0.5307487345437282,0.8367143438270708
1.0646301217566656,-0.41127604690314007,0.6461617629300259
1.0238705126594814,-0.2973996519860474,0.6706663610468746
1.0207710875135387,-0.2561902365153234,0.3620399980957784
1.0253949983736883,-0.1890501070808604,0.10323173291489303
0.9971747843033313,-0.1052087009940579,-0.12564990880980775
0.762652368820854,-0.09876470524389518,-0.3676036393576002
0.8026949792311147,0.06329808366273175,-0.5174193849955729
0.6629754873608507,0.07600215758427838,-0.6373427328678514
0.5547957593502597,0.19089173650972585,-0.8362014203482366
0.5385297257532138,0.2165682442695236,-0.8577415776903049
0.42458433048047206,0.3322663887431207,-0.9811501091269463
0.24883924502770055,0.4756087473952255,-0.9656689901635798
0.12920837074116612,0.48015839063823695,-0.8881022026788665
-0.08944817015982784,0.5857372419649659,-0.9306161584254363
-0.2390769112870694,0.6483551336801736,-0.8723167372673382
-0.3094490324789859,0.763276442355028,-0.6805320825812892
-0.369077647138339,0.7035780868704087,-0.4811422055065552
-0.49882408319658406,0.7143212311776765,-0.288978039085693
-0.5455213014887017,0.7762453976838534,-0.10660622758866625
-0.7121625099675999,0.9428021382440781,0.12528867705955263
-0.804403951904208,0.904110919871827,0.28375378558702663
-0.8511544885622693,1.0189519295312062,0.46988587860591835
-0.889900152308648,0.951224292432228,0.6961645779823641
-0.9226964793783482,0.980943523683681,0.8626878968105381
-0.9616675496568241,0.9786517046547519,0.9932956130530306
-1.053448523307761,0.9716527468621234,0.9841994624296851
-0.867245765375937,0.9756034972204342,1.0142032605248643
-1.0498836068166018,0.935862499688288,0.9923868063448079
-1.0059154451041423,0.9276724342755306,0.7814096966928704
-0.9005807312744901,0.8860641486733357,0.8717818601750085
-0.8204388150229021,0.9416013440882756,0.6857072749785883
-0.8075230377480603,0.9348615088946288,0.5144379338463286
-0.6713214597502997,0.8510521511517216,0.3090614895074411
-0.6078637414724541,0.8612827827775381,0.20878551105087767
-0.45436734918855065,0.7842481159318117,-0.061112308987314845
-0.3990803045845457,0.7524114272556583,-0.2709489976495774
-0.19376495806243385,0.711555107688263,-0.5639148385645605
-0.12802930601307966,0.5789181943217487,-0.6187152567869564
0.0725311245489069,0.5411112401949623,-0.8408203544299256
0.16368530741061013,0.48901589911777804,-0.8540653810489763
0.36083824172340156,0.4288492799469141,-0.9584196606046235
0.45815464546599693,0.3601920235609465,-0.9564853765902269
0.5425076413984381,0.216447505138347,-1.0394255474883007
0.578796246679969,0.2152984361750646,-0.9681277059650354
0.6167098870374749,0.07506850483204745,-0.7682662238392921
0.7974913551196923,0.0927309406373811,-0.6743200782228421
0.9146225345380472,-0.09566987774950832,-0.46569064929507004
0.9096361347867267,-0.23666968806845684,-0.315603261426721
0.9861707262601281,-0.30139270729156153,-0.05462254848539982
0.9632828016701198,-0.26910991142407903,0.1537696059163051
0.9448031255629564,-0.34455762892614866,0.2768706391684491
0.9417757975811406,-0.5096415533203542,0.3804264210608542
0.8776205370327222,-0.5691764007711255,0.6712028690878763
1.0403588486447006,-0.5207584260445222,0.8812364036955178
0.8880495849100183,-0.6576131114765981,0.8525715816761188
0.937567846042349,-0.7389841805200259,0.9703618271754978
0.8196817269051381,-0.8131005250710892,0.9347881723308878
0.7300313841399267,-0.7480043140716086,0.9919331388117817
0.674830364979625,-0.7729643701345023,0.8620052091850332
0.3496680214598854,-0.8610032713445855,0.8900947849037197
0.4019221814914614,-0.9155216681665224,0.6477334689250958
0.3257947162934502,-0.9607425495517451,0.4929084836552793
0.10917111828325027,-1.0199707485767517,0.37748152697097004
-0.04099788338453087,-0.9877434002479822,0.13082706631710805
-0.18022536766155603,-1.0322709396389327,-0.09517342204202399
-0.33217493596618014,-1.1249338467397147,-0.31771210486733736
-0.3453324499716852,-0.989117093246511,-0.5887410222591217
-0.44355415353791006,-0.9820683133777711,-0.7692790654794718
-0.6517131173765476,-0.9962756386624618,-0.8490386606621942
-0.6905668787186942,-0.9161384200160764,-0.9473268232338838
-0.7896836877768207,-0.9203157643405309,-1.046906781557945
-0.7629927197108655,-0.9071160336182333,-1.0385214585071862
-0.9223751790868346,-0.7840226354179626,-0.9408566387043102
-0.9536386423320247,-0.8685647185469251,-0.8102697919204204
-0.9424782556207137,-0.7363128099646435,-0.7917368162517038
-0.9630687035683813,-0.7016661105162164,-0.6686334356155524
-0.9504667745210981,-0.6976391444030001,-0.5125481642625853
-1.0861097815565752,-0.462443201539974,-0.3523725913723742
-0.9932364203399187,-0.6524880957895123,-0.084909042374188
-0.935639640969127,-0.4953048099981117,0.028581521248746716
-0.7547046511303388,-0.4231531135871372,0.28366073361560373
-0.7662294084260087,-0.35491795480879396,0.6122605257419558
-0.6046718777643937,-0.16811452332613536,0.6931083045403309
-0.5703540690408219,-0.21556201951516857,0.7914011031641637
-0.5194903121461688,-0.09637885405626637,0.9159372253579875
-0.2773319969837168,0.05127759338755691,0.9585129836759017
-0.3378168022655739,0.12196156275694073,0.9695927720493144
-0.2013070931237868,0.15132544483147428,0.8514396555183715
-0.07091108712026778,0.20461135593084237,0.9393587463583946
0.1926463416668145,0.32852954381222177,0.835978373341272
0.21318888228722244,0.4169435920242644,0.6302657053661853
0.3731313277276646,0.451409904009625,0.47444237384300175
0.5413107260703965,0.5394730438205982,0.22572184487038366
0.5100255237122684,0.5906550807707138,0.08257545655610761
0.6368697867029498,0.6040827636093159,-0.06323279251255626
0.9296405858249066,0.6950420072889729,-0.3293897983994125
0.8610979050426022,0.7188840396786091,-0.5237218325263426
0.9760955327377179,0.7717149792780611,-0.7452228664157662
0.9439403380297329,0.8227263994277939,-0.902455076984606
0.9686260995945117,0.8600921433163122,-0.9666252819553327
1.0431295294840426,0.984819229459441,-1.0106739208917088
0.9963145524349526,0.9343275019279076,-1.0454354402869719
1.0062348099966933,0.8980777966082084,-0.9835696649197613
0.875532912104879,1.0566152439934675,-0.8934870628842778
0.9041319427702539,0.9224803065503123,-0.8097689227469419
0.8382856366230366,0.9909742953357299,-0.5801285867551442
0.8027849407187725,0.9989247422134774,-0.505295761629865
0.5670478057784688,1.009677119585765,-0.3068826278732737
0.5574319321686719,1.0425050141900927,-0.11022809967534597
0.4425763770424052,0.908418971162323,0.06498498205775541
0.3583435197792078,0.9078529824176054,0.34817899777659755
0.20768855849003562,0.9194590385269531,0.46063924177701515
0.1193688011267423,0.8743134734596932,0.785795967906129
0.023840218962178805,0.8529342645282346,0.7502703333383559
-0.19259828676343177,0.7963708471713972,0.8447795044102713
-0.3483466768678986,0.8070511141898823,0.9954634611999235
-0.3140576958489586,0.5733349099189888,1.0015925234487884
-0.48666001027992767,0.6733668885819627,1.108079049458852
-0.6251904529800666,0.4924144673181296,0.9842504435516805
-0.610070980664667,0.4451334014562432,0.8106701325450254
-0.6832446868483518,0.418583817207738,0.6269726485350332
-0.9393170078640701,0.26312245328176903,0.4797755442294703
-0.9051131843666216,0.31824246271756634,0.37202030294487837
-1.0463848728813205,0.16526158794746806,0.07936078154715977
-0.9918757225017834,0.07393137735282662,-0.0724075293191572
-1.013045765777659,0.030829849888488046,-0.24274096759058927
-0.9396661341490756,0.04022651963411392,-0.5611532129064575
-0.9557112739578989,-0.1426114380317739,-0.7427840831154549
-0.9224211674544435,-0.15465763209785127,-0.8295432192401742
-0.9727962661940079,-0.3687672085668078,-0.9070543758351174
-0.9191891854329923,-0.23039207394572028,-0.9658551826729869
-0.7473853515251041,-0.4697059828755019,-0.9407465037329232
-0.687922385967187,-0.5542875049359783,-1.0300182521025982
-0.6407589324519657,-0.49430269539317717,-0.9074514534089309
-0.43405091654179606,-0.6029248389932278,-0.8324678864916992
-0.36773355074058695,-0.6877352698616117,-0.6842144070519682
-0.2472050689007716,-0.7843833651051929,-0.56235973293545
-0.12484810947054864,-0.7864606745360265,-0.2905071052027298
-0.004210078503343527,-0.8383934546110646,-0.15127352593806698
0.16231101780352475,-0.7625351344596676,0.035675774053408355
0.26078553763164747,-0.8826139338946061,0.3121810358792828
0.4219524142504125,-0.9214200491037745,0.573283406579652
0.45351176370904633,-0.9917604289424823,0.6453692427107056
0.5526496834123512,-0.9908118212056464,0.8438405307750682
0.724175909115064,-1.0304888676618367,0.8251138346746013
0.7915479807115027,-1.0031784960788845,0.9433426096346238
0.9550920025643015,-1.034663255978005,0.9699464325258504
0.9081140053127584,-0.9764106069369115,1.0011212958189242
0.991310902574607,-0.8664721066371733,0.9440901700016812
1.0690584249131285,-0.8405308874691289,0.7563390643845834
0.9679810194585444,-0.9830297220817336,0.6859292112429981
1.0281679062009321,-0.900312162118912,0.526196288217304
0.9220009581713401,-0.8507828279705568,0.2763988229827907
0.954749372807742,-0.8947157032956257,0.15490977546483067
0.9349721787301308,-0.7303513847373483,-0.06988674867312872
0.7946824640754434,-0.7128549274179442,-0.3182999460438447
0.8603110440443944,-0.5790607481724009,-0.4937405618059054
0.7077206471780398,-0.6488697723379108,-0.7058555535420628
0.6688761699333401,-0.5337504638332595,-0.8759497059284511
0.46238412131768375,-0.49562928541322104,-0.9959678558539434
0.3327774915410589,-0.4480349950727236,-0.9976431423254725
0.29119573057534326,-0.28357220042986897,-0.9592997757522186
0.08305207706383091,-0.20479370054456617,-0.8919653256930681
0.088509080317877,-0.13199449773675637,-0.8933677460948394
-0.0833403574224514,-0.09978136738700243,-0.7718035130904257
-0.25218863204852504,-0.08755722123912599,-0.6697092507029706
-0.40254061749543085,0.02623083127657644,-0.49805100395054713
-0.4227392545423797,0.14479127124283608,-0.3059962161596571
-0.5657914054561225,0.18374586495307327,-0.12190756756783597
-0.6363955153916462,0.2788353530586568,0.11624842991305476
-0.7883276679821855,0.24471413277863627,0.22243001810405078
-0.8165698120272463,0.38023978069601205,0.5257401842367867
-0.8553704985529703,0.6058328641611858,0.6470658808255203
-1.0046743855111917,0.5823917968184843,0.8019451547045541
-0.9497612964901581,0.7028775977132937,0.9958984983188643
-1.0711157821445492,0.7020981284011489,0.9524851734918017
-1.1117126111670512,0.7357310399835506,1.0380231713482244
-1.0188226779180691,0.7844245678281171,1.0040280729951077
-1.007370501693243,0.8668235671866954,0.9663451311525425
-0.8981049117139951,0.8271984183179522,0.7690274534843276
-0.9163497731993326,0.9345065721007,0.5931159246631202
-0.8107657071595382,1.0214709838493357,0.5071738149213549
-0.7274752106886697,0.9809620604140433,0.2800143355024546
-0.5510495775344745,1.051445312220562,0.08350432576155259
-0.450975015958921,1.0084268894097834,-0.06748920385711357
-0.3611449036035924,1.048542298692657,-0.3184707779597913
-0.14576975805001885,1.0227654622819962,-0.483433312831565
-0.12774133552485156,0.9730107129457273,-0.6549292152692098
-0.03313669455167314,0.9367674129316929,-0.846678641000705
0.10191017721131726,1.017868435137872,-0.8644401407251067
0.1855407544060877,0.8979553396278462,-0.9464228512949787
0.3912561819214406,0.8870953131310639,-1.0919338642403633
0.49389225492899114,0.8597912728309525,-0.8807023144420818
0.5464820299374397,0.8074537392993523,-0.8902371483183295
0.6578173892342021,0.7181857788275499,-0.8143689835100547
0.701569308894011,0.7188542824426454,-0.6663149378670932
0.8954790858331652,0.7090274943669541,-0.48047103257539314
0.9534112791317597,0.5883301387521569,-0.391801747586374
1.0879936330823345,0.4550753232036289,-0.0534805275094197
0.9490848256125256,0.41301253204984256,0.098486739304817
0.9910246706449326,0.45544681148663707,0.3122934638692143
0.9716182308627963,0.36955205196855917,0.5291323465807665
0.9834705109523634,0.2254385082416042,0.7041904549558043
0.9323656641615098,0.17085010895896063,0.900080441129984
0.9154867906018017,0.1763207869272156,1.031009767178032
0.8318322142407599,0.02067030386733817,0.9280265309450274
0.813186552623185,-0.03199312729166881,1.0161074772856291
0.6787642383567958,-0.23088151997422043,0.9871645839942856
0.5833251089091956,-0.16733266407861405,0.9652623302911709
0.47026446394447413,-0.31153976251412885,0.8097809134541223
0.3981047691970149,-0.3074423635280179,0.6380262239847712
0.27533301325359305,-0.4159671800879622,0.46948480078584937
0.1221217794468271,-0.49360451386538173,0.3136293498189647
-0.053532461482647994,-0.5708805991921504,0.09781227461404063
-0.12009999075282018,-0.6692429643417581,-0.08828489895709352
-0.2857616403351388,-0.660831948639128,-0.4065441055235024
-0.2953664844162517,-0.7293120910379708,-0.5447820666291509
-0.5129564017640149,-0.7558407568739292,-0.7077100642540015
-0.5648178303321395,-0.7695160733646829,-0.7942757788212735
-0.7585626457779102,-0.8979093166192834,-0.8863048280377013
-0.734879132675265,-0.9303398852443525,-1.0670515802588239
-0.8445903414826449,-0.8431245739759422,-0.9344667454739156
-0.8294649092486933,-0.9674886964752198,-1.0392230354846488
-1.0310272576091037,-1.0214781955130594,-0.8406564568704832
-1.025310721862055,-0.9250666765977001,-0.7827109810491154
-1.0641742168014234,-1.0431015993869206,-0.6971369843239035
-1.0123242927669098,-0.9034096444323726,-0.4627611710262256
-0.849852771405778,-0.957072990559017,-0.39219493288478297
-0.9881029901470274,-0.8771526721040265,-0.04276560923684841
-0.9261691357571248,-0.9100823076020667,0.06179020735463976
-0.87021047996073,-0.9750847651534335,0.3430218250902311
-0.6430895179046867,-0.8820839222492091,0.5072187336282664
-0.6669031447101528,-0.8317796661399535,0.6873571954155498
-0.6379005519825297,-0.7279990555218838,0.822984071516793
-0.4398120643683362,-0.7919019762858932,0.9318740081401524
-0.44227010507958175,-0.6501335832138109,1.0953565340655838
-0.2634130484880617,-0.6677067672131175,0.9639297231773174
-0.06899233335316896,-0.6172196844870016,0.958584946508483
-0.10520553136933361,-0.5324322862684336,0.9395764933498503
0.19014751683975067,-0.5718753299103486,0.8470413203801593
0.2654751782016335,-0.41129273904946556,0.7240888792122155
0.38489169428403064,-0.30141702611199467,0.5075021555781978
0.49785844476789176,-0.1805421776868253,0.3240924665926314
0.6335041923649032,-0.20747517592123826,0.1675726393805893
0.7142767403399081,-0.06519849484649386,-0.0727283649158125
0.7285900596177748,0.02583743405512865,-0.28787632466510715
0.789762301324436,0.06108613199348945,-0.39877411820785774
0.9548304989772086,0.16417532125806097,-0.7017202410010419
0.996919503348244,0.18638786238272476,-0.7759922391957909
0.9511892120989169,0.2734734698687869,-0.9420359073453434
1.0176238742670292,0.3441399071127096,-1.0063110198035812
0.9349996397594738,0.43249693396961336,-0.9806970565522002
1.0341112913612225,0.5076367022330283,-0.917667287774503
0.9504703586796318,0.6545376330781862,-0.8345095868766589
0.9286550187155899,0.7066253448409314,-0.823792227709164
0.8998602896670537,0.6119062579610834,-0.6721461667375186
0.7428335565548545,0.6832448886174017,-0.4980500729730562
0.6594032641492642,0.852808333439218,-0.20385504290037584
0.5101058467204311,0.8072616579398728,-0.08086520927212418
0.5006872197924018,0.8913843835934551,0.17592793741140506
0.4482658460757842,1.013492564435848,0.2726879346451686
0.2910331041504246,0.9298343765821746,0.4780606550381448
0.06712144062770087,0.904037882983049,0.6811360992430385
-0.02782174989750886,1.0169759760177484,0.8931370150171549
-0.12034644443344562,0.9226174597289698,0.8147155312577962
-0.23248017419250613,1.046002619373284,0.9857892033533453
-0.37067004362394707,1.0477029859282287,1.0424847490217284
-0.4841543538358906,1.0756582924601257,0.9925451364958094
-0.5872258134691508,1.0613363648978544,0.8673939722610547
-0.6701671253492358,0.9654356938095092,0.8758981391215828
-0.8042030032946282,0.9748034301137186,0.6066779377759836
-0.7992517151492953,0.883558124862303,0.3783180054434999
-0.9007096391661983,0.8673493265157964,0.35035406632005484
-0.8660444305999365,0.7827879747488229,0.1113329740823647
-1.014551218620313,0.7960832505302111,-0.12834092270566594
-1.0370949891003902,0.6726572632456063,-0.2572648282194631
-1.0499855104201636,0.6897319651907918,-0.5071097732151404
-1.0244083583441526,0.5854582919972293,-0.6704558981779453
-0.9982833225385799,0.5271963334960422,-0.9016323987279385
-0.9075859462703199,0.4203840770106971,-0.8974559136147524
-0.8332460698033136,0.5146983391436589,-0.9622396746484446
-0.8225536026754767,0.2909792362992254,-1.0369278281626806
-0.5956412306061584,0.24231473731938113,-1.0544182243890385
-0.5712407931061119,0.2419512581986593,-0.9023873785248829
-0.5205966878860719,0.14671662371384708,-0.827112721353164
-0.3603857450226425,0.06748145648941126,-0.7296883780591683
-0.13141347448671747,-0.08908395275008361,-0.5780903516156246
-0.13467148564951034,-0.11723299316907732,-0.3675033499358025
-0.0026168409050870305,-0.25157413172163395,-0.10400040511168239
0.0946118669142977,-0.2279736562263701,0.18450954528069635
0.3202114941021277,-0.35040406514994654,0.374953296185644
0.46843396428927264,-0.4692099681518764,0.5543706194461915
0.5515481992042311,-0.5104469419462865,0.6977867671539953
0.6456715852793437,-0.584688651794429,0.7927007697613756
0.7807020976154254,-0.5916784468370374,0.9126975254154072
0.8960613551558176,-0.7287951329445571,1.0327441099451256
0.8585141296582794,-0.7414888557990108,1.058427910930507
0.8921794826814727,-0.7981345038606198,0.9981846674722424
0.9831722575759367,-0.941858388013721,0.824679165694486
0.9445723181737767,-0.8718229004800806,0.7699176987620086
1.0353992117845177,-0.9076141002035427,0.6637558736302211
0.9808029492014257,-0.932131328525762,0.5375801249336372
0.9845561089035317,-1.092024638134231,0.3115471538319231
0.9784611790863575,-0.9978966754993318,0.12488019036759763
0.9335131246830943,-1.0318473751235098,-0.04606022476779997
0.7700996310390547,-0.950407642607372,-0.3201427497761047
0.7765808681642226,-0.9871919624995404,-0.5824348010648253
0.8093834187834681,-0.9261440400711279,-0.6409831833626418
0.5799776397942814,-1.0616357962868346,-0.7281457702366947
0.4332542690689783,-0.8769325358351957,-1.041927153534491
0.4401708863206928,-0.9983842026059524,-0.9741790722753862
0.22284841141276102,-0.8973872469510654,-1.0572948710503363
0.15680026925527607,-0.8972207309174105,-1.01127655997208
0.032676059011575574,-0.8086784319494261,-0.9675832634486002
-0.203455406530655,-0.7633458508735566,-0.7460259862402827
-0.257885069543465,-0.6588205171019205,-0.6305451434658169
-0.35169951844050124,-0.7352448954795899,-0.5046764809126684
-0.5166851797640181,-0.6293351257748974,-0.3393998742403719
-0.6313260099111555,-0.5211422488975415,-0.1523955579807466
-0.6758950286510728,-0.46866876486290937,0.0994664425378459
-0.8804586763388513,-0.4969975209581388,0.18630724896551365
-0.8399524299438982,-0.3113993841764085,0.5081611996634358
-0.9138092795522484,-0.22253351709503344,0.704826973967443
-0.9128548303726459,-0.15799197486859362,0.8631636341168273
-0.9062604505225913,-0.16199828535216915,0.9205480123324401
-0.9711250329220501,-0.013759127400051025,1.0202014607547962
-1.0158638914016838,0.07593409597979021,0.9679098885887729
-1.0143539467170177,0.11997500284124288,1.053413408955546
-0.9870949361480578,0.17808942267734426,0.9201886066237711
-0.9881796119144612,0.28096464288287437,0.7947641359832063
-0.858683666546953,0.4331606517550868,0.6661126552320851
-0.8363842852910989,0.47008787027707577,0.47324004873906106
-0.7024349831755853,0.4059200118196158,0.3625533573859455
-0.5780919013984196,0.5087564164268567,0.07992638282876682
-0.4348148890018916,0.6401012311489646,-0.0661554882040352
-0.4155953038753904,0.6381827602679401,-0.2941377956198469
-0.22657243118683043,0.6933772911881272,-0.4752349715679754
-0.002225639507861213,0.7606065439236288,-0.7167878312453696
-0.00750826040043986,0.9301056266522558,-0.8850565215043481
0.1961723447540904,0.8820809237911703,-1.0697369529921663
0.2542526821776259,1.010180947340559,-0.9654917843274443
0.4310279308793784,0.961642162570994,-0.9513725179386467
0.49032139915287476,0.8938122765127994,-0.9309288187107395
0.5353622861699673,0.9772834421882969,-0.9145201138067042
0.6418281379304724,1.0477910064719738,-0.8299474544669472
0.7715084532003664,1.0563893316997695,-0.5946484847043066
0.8253503042341562,0.8872728173540662,-0.465031717348316
0.841652562405715,0.960022340933915,-0.37906308117214577
0.9628115014545392,0.9874951685780857,-0.1094329522472408
0.9444999350141595,0.9920928312404631,0.09509874601498275
1.049342318412579,0.9307131755745375,0.3085043437429621
0.9351266511229297,0.8996265397014,0.6042926761927275
1.0270986220422715,0.9410958448384671,0.6800023503899677
0.899846574580899,0.9058401967458328,0.7394063524882618
0.8876824332604004,0.7973251073651358,0.9620933200451488
0.8925882116756819,0.7641557005016598,0.9989431865736994
0.7814343304911008,0.6890236569458984,1.0967966277879326
0.7108653253353789,0.6172880779981589,0.9688055160044865
0.5659465494777339,0.539064695741658,0.9907678486070041
0.45086982322458685,0.545222776283735,0.7733955812841928
0.3776122163159607,0.41106082088132784,0.6670026365631148
0.20994464120732992,0.3569671839126282,0.4613472900363226
0.1374530809503213,0.23364386615974217,0.31997037580977505
-0.08787602300598364,0.17763511413902336,0.08798636411930519
-0.12144589654505807,0.15929509509075063,-0.11560727634495932
-0.21385055524802352,-0.031126955304751007,-0.446259036025238
-0.2867511928087379,-0.013908713892588145,-0.42801739839522474
-0.49184937583255944,-0.11343170601808596,-0.6854006792662407
-0.6058600830793974,-0.14468161819558406,-0.8791811209694234
-0.7565268326128997,-0.2705880883139884,-0.8896135462034339
-0.7553798440728094,-0.34514118981347963,-1.0345037966858732
-0.8973341649856882,-0.41212384910489014,-0.9415968998816859
-0.9401690113697235,-0.5011427950930457,-0.9982127041433524
-0.9658439568547741,-0.6025030672968886,-0.9742012320972785
-0.9759707556867809,-0.5883464878715066,-0.6867020484103572
-1.0222842821707676,-0.6842776758565329,-0.6074189457720152
-1.0112268701116334,-0.7525301735580614,-0.48067321580277145
-1.0068949729998693,-0.813444817232673,-0.283186594652706
-0.8943054080754014,-0.863744908438273,-0.16095586060080092
-0.9901566480863375,-0.8221821530673669,0.11218076418599819
-0.945552603767137,-0.9263653017521907,0.2580057598820211
-0.6832084647063091,-0.867094322945949,0.48244051436043234
-0.6751798480874341,-1.0061057254531032,0.6271231438352232
-0.5688895553827716,-1.0037559395211937,0.8532477549062316
-0.3801233797145964,-1.0501944386273827,0.8710633196997851
-0.3265043259360189,-1.0111151782089476,1.0249704516395661
-0.2539784220136222,-1.0590723768713892,1.00119490046609
-0.16004694693827154,-0.9102382874624949,0.9526793274653697
0.029288678984119656,-0.9388958716790251,0.9017759754537464
0.11593377032017957,-0.923910220573524,0.772574955388593
0.2806108616026535,-0.953209318601045,0.5860807126868173
0.47745653157518186,-0.8525742762279783,0.47295302833253616
0.5357934672787412,-0.8797755423402884,0.31195277697726875
0.6229472303147772,-0.771543116609624,0.13609580385796
0.7500754580187826,-0.7568320000445556,-0.04064700743717585
0.7259032088419136,-0.7349786285502056,-0.33543540010943024
0.866029810205261,-0.7190866515816543,-0.5993867997142556
0.7959777737508194,-0.5921444491218117,-0.7804537427724026
0.9507541417928407,-0.5206590537261979,-0.8554908440021053
0.9062964593853788,-0.4233671704909776,-0.8410963965235654
1.0505599467383975,-0.41141971354641604,-1.0228968505721767
0.945700476976007,-0.30860331332807395,-0.932235229876247
1.0494417832963714,-0.24953160131364294,-1.0050637593018674
0.8914315038186141,-0.15373671426387706,-0.870645081449687
0.863830841848147,-0.08428985949154333,-0.8635398676571695
0.8405925651369783,0.053991835366235676,-0.6437610097132946
0.7401972783801711,0.08566188493466186,-0.4885760191458158
0.7045650060434765,0.15717152690420155,-0.36595373390135494
0.5779103373818587,0.18380034279481733,-0.16386306199855177
0.49010998751123097,0.25125639220001866,0.16700111869654372
0.3687540210095977,0.2795713447873047,0.31035709415249935
0.19644908324692562,0.5201343422263188,0.4177413531130222
-0.002156881046857184,0.4414269343320405,0.6876328414826335
0.03664526856587272,0.5031612652773749,0.841063974431329
-0.03601476011827412,0.6180092309557921,0.9777666712666001
-0.25551690536888116,0.7689601520294703,1.0339862336785015
-0.378537032762104,0.7243364844588421,1.0258056439006091
-0.5091528589077519,0.7147603586908525,1.1257526871134549
-0.478256745359096,0.873029922132918,0.8929486400564356
-0.773107306802217,0.8629317002313732,0.8261914198955659
-0.8122869458371647,0.8952157838397772,0.7517553894761169
-0.7912689214162121,0.9137758929027435,0.46104119092350526
-0.8246726481345383,0.9188544960177898,0.3278214047087045
-1.0215850751236721,1.035094708829788,0.04843791329106617
-1.0268327120043548,0.9845073844492712,-0.1419767160062428
-1.002179472208683,0.9777025047855971,-0.3192645524261955
-1.0030352593079535,1.003987183298318,-0.46173643487565175
-0.9568135097669895,1.0260249672060988,-0.5436000868163477
-0.9513982500926301,0.9699742834941535,-0.8300015907871354
-0.9538233239472844,1.0235543417818753,-0.8702917377313332
-0.8355387158586862,0.9554345075326335,-0.9639142414202565
-0.8227325128217401,0.8258103489729396,-0.9648801179629358
-0.6930741737716852,0.9817607778327742,-0.9497158206275568
-0.567541806423005,0.8595483795180882,-0.9224146066978661
-0.5428141943301151,0.7767506710804384,-0.7368668517170669
-0.28571834218430747,0.6654773463888367,-0.7004839397221573
-0.2738992601116847,0.6363482845219699,-0.5705205195930163
-0.22647410169835577,0.6564135938379886,-0.25718416212650447
-0.03262374773454049,0.5030931580800209,-0.11515693405629904
0.04079338319090785,0.43578794531521237,0.04779691922456217
0.18805447782538456,0.4885839292225716,0.3192774251644083
0.41434926937526084,0.33172089194583976,0.6038305966109259
0.5587111646623929,0.292982690244083,0.6573141016875108
0.5369923143318174,0.17131659759592407,0.8250755828747466
0.621582114315894,0.018940289181601067,0.9247219715907534
0.7218197798137763,-0.010850687024652913,1.015903412251699
0.7892677076947767,-0.12227674384647053,1.0032034035955648
0.9135358437183166,-0.13221852354200211,1.0440551379969707
0.9085255817088214,-0.2419927246642875,0.833089673883089
0.9909086519977144,-0.39222483367974154,0.8229739353558172
1.0439590463066444,-0.38054083609649525,0.5504566302996271
1.0523863560711635,-0.4346139875365929,0.47485248720982187
0.9893417568221735,-0.4914778333745279,0.30680356072074655
0.9971911912173886,-0.5244603777217016,0.08018755140792161
0.9216932950984558,-0.6632958351981312,-0.16084943311475217
0.8201680018542767,-0.7254954352630701,-0.35890675122333876
0.6219510114398374,-0.765316684835066,-0.4955913119546852
0.6510266715893647,-0.7723442944747301,-0.7405793426192139
0.5891088577865968,-0.9009898764861051,-0.8727931709652189
0.5484743827035022,-0.8860120046899572,-1.0201730516407308
0.4053815429401397,-0.895924983943646,-1.0932982885643199
0.2578944745724022,-0.9299863721006857,-1.0568792341994602
0.08472162132337852,-0.9372622559625772,-0.9680477644902541
-0.014895355045918502,-0.9720772307485751,-0.8986785544713286
-0.12015939319629543,-1.000737787767395,-0.7597789413929578
-0.34187730746484984,-0.9250006522282543,-0.6952315745068861
-0.4038183923114691,-1.0859988549008637,-0.5383964846694058
-0.382351769241238,-0.9171534385998672,-0.2968828296700694
-0.5516460411166275,-1.0014538230729872,-0.17177091300863212
-0.7436635605308928,-0.8891131334147628,0.12042917201587836
-0.8056447897790519,-0.9282859044075922,0.3138233784290535
-0.8225967480903306,-0.8716400154122578,0.5531320702935412
-0.8393064286995251,-0.8993981164418061,0.6686863661593496
-0.9724643119704716,-0.817600346699656,0.8564647446092546
-0.9538034907646165,-0.8585828404381877,0.8553165967258797
-0.9958428117807145,-0.7582615438324247,0.9248414183122639
-1.0507180848995221,-0.6524853144761277,0.9965836768390284
-0.9724451673853295,-0.6871505496004717,0.9197693873224545
-1.061079739032416,-0.47144745384692266,0.8856626115970696
-1.040001894109711,-0.38420615843268235,0.8484257234150956
-0.75842992978615,-0.4142255055046622,0.6422908306323167
-0.7656963930071731,-0.23638326611901517,0.4457934386014349
-0.7990901196495854,-0.25643428217171055,0.3474399776968566
-0.541809350919455,-0.12318762624842303,0.07344181162953095
-0.48406553331121294,-0.06263334214906532,-0.04136276016627305
-0.3292121633887367,0.041823861801023335,-0.3172734035444937
-0.1815845925056605,-0.1324071201001594,-0.6261178473198681
-0.2068684776086004,0.025091929604222324,-0.7075395832823931
-0.01456331637297914,0.2651666189284867,-0.7634192317711839
0.044145767407599665,0.2902041905345278,-0.8669044911699761
0.3465797833209829,0.3326146771084812,-0.9407586488234893
0.3428593738281041,0.42517392099255047,-1.076861094164143
0.4415116891993492,0.5168463241560598,-1.0420574877073334
0.5162018589686841,0.5879209450688672,-0.9143333823941057
0.6779669708513946,0.5493918776429421,-0.803174200638712
0.7640865529536203,0.6423819839217375,-0.603966050270774
0.8458122288488885,0.654928028196565,-0.5434526026574755
0.9624995938527549,0.8432814546104914,-0.23959529118821
0.894572572167904,0.8876585356662041,-0.04010532939350493
0.9548143404789327,0.9189812629285753,0.1035756902245495
0.9528236775971756,0.9357402972292616,0.2763950973161101
1.0063126473225383,1.0359943766151987,0.6160390878979947
1.0272775640506049,0.9903768163061253,0.6334900064406115
0.9598371414606316,1.0110653418080122,0.7284000661131965
0.8540031492367357,1.0476858311787265,0.9885443960474031
0.773492655431034,1.0790001503419706,0.8846939959190617
0.7302669141293842,0.9875828466988215,0.9832910534875113
0.7031793252313412,1.009034631130477,0.9382512694944047
0.6099311090093562,0.9598741965162036,0.9008396342580999
0.5159300964810792,0.8858481692112945,0.8202794092413048
0.4095687704159686,0.9348879631242596,0.6535940865477898
0.29832461070620453,0.921125943624773,0.47567461479924716
0.17711465703603008,0.9076126808892724,0.2786561100008223
-0.04340402218974941,0.8024081271911798,0.1870583413571171
-0.039356643141615966,0.8024830720977796,-0.13221636388313412
-0.23906808199040527,0.5818801114810634,-0.3860852755972107
-0.37069927493093496,0.6794771076080467,-0.47161149508216255
-0.48610652407366994,0.5956001830538442,-0.7358055843977811
-0.5754063420118412,0.48788754103905674,-0.8856130826879244
-0.6759883370403055,0.5314963367248957,-0.9231421720096844
-0.7692659083166075,0.30946443735545237,-0.976583646252687
-0.8494229201518358,0.3107387114488344,-1.0473323928053884
-0.8597177203585823,0.21137878253122805,-0.969250264188121
-0.9576178896733175,0.10635328786878043,-0.8801018213735221
-1.0098621913434955,0.1216634211046598,-0.7854646882067693
-0.9983625047562099,0.11015128638187656,-0.6467132042680586
-0.9143820454222407,-0.04906562165530999,-0.5221936336213319
-0.9857624726711147,-0.14008659442589289,-0.2877662549869817
-0.9718290999324775,-0.18076966852959264,-0.15838497530939047
-0.9589935422663973,-0.34049099230211555,0.10252056473668004
-0.9385775554563347,-0.37477928554127093,0.3309929767404825
-0.7491755526994839,-0.4628670047796748,0.49659357158051115
-0.5965500071854847,-0.48417740279906085,0.7402842253869562
-0.5694816375777664,-0.5155144158832654,0.7700681671626832
-0.42391340973249614,-0.6617979490414186,0.891183118075831
-0.3563644260977874,-0.7289674686905364,0.9443016708664704
-0.21700129380668684,-0.713313925478786,1.0298199277186306
-0.14510919547688897,-0.8393324279577736,1.0263981178583088
-0.016881020148091994,-0.8065150486413746,0.964648415011163
0.09055851873695014,-0.8589210279742028,0.8447617901464399
0.1749113548908081,-0.917618483194529,0.7103172748660829
0.3738544720033637,-0.9066134681285167,0.4011663737988129
0.49751694506359717,-1.0175244010526194,0.2798574538178034
0.5860965499182655,-0.9783751952991163,0.10955929019532232
0.7031672484511439,-1.0365754339572784,-0.20362281000303856
0.7753029736183549,-0.9479505669668543,-0.313877359677402
0.8932198463566032,-1.0451710427874883,-0.52063148628259
0.9036447171255599,-1.0484500011945348,-0.753359432551922
0.9117644292518692,-0.992384379386221,-0.761439565860745
0.9156504061217563,-0.9653623307996404,-0.9428182944595075
0.961653454492751,-0.8410296679877944,-0.887024749479236
0.9445187370989849,-0.8944930345859433,-0.9441074246499304
0.9719341746931479,-0.8625500808525212,-0.958774159582131
1.000778138604402,-0.8165142473437041,-0.929607475286481
0.8367014628984752,-0.7158076231596122,-0.7877624629060779
0.9194127038258295,-0.6946126014069027,-0.6808999402912477
0.7751381319160849,-0.6780940106737195,-0.5102608247848245
0.6311762984094094,-0.6555911647935838,-0.21184888900611942
0.6463050791547594,-0.5442836771278207,-0.11440141079974833
0.34564568522814054,-0.4159123237601435,0.08429277164484089
0.37976508940484144,-0.3780694522453444,0.3022285483987879
0.20906210839385958,-0.28376120857483533,0.44937330200137526
0.20418279227159458,-0.273914447045147,0.7081216472949241
-0.11049185497512248,-0.16951710770030082,0.8123002692605741
-0.08262499942670945,-0.11178654437037183,0.9054718697085019
-0.2426122320275194,-0.0029549164998811522,0.9361324023794619
-0.32057273883935666,0.011007451537960823,0.9434031690474131
-0.4764767945940232,0.18492202440121577,0.97485332343647
-0.5713302138674554,0.2355082964588282,0.989884680852837
-0.7667036573913564,0.3820544289152322,0.7358368017374334
-0.7891503250459782,0.4312913108470055,0.6284603062516533
-0.8398526839903244,0.32817018353254856,0.4248123987728284
-0.9084571568186994,0.5690513000068516,0.20007045573937499
-0.9845975026020646,0.5653966180882881,0.16770388178443432
-0.9282775658837746,0.5114409172832757,-0.1049660400055422
-1.0160661965237652,0.719217846526677,-0.40067200595357483
-1.0256216827358078,0.6608334985800521,-0.5632023792711625
-0.9689756025002468,0.7387718796109299,-0.6630432641886714
-0.9449007251405477,0.7841208765997996,-0.7581489425480732
-0.8991868922568576,0.885423142068814,-0.9399451779725068
-0.8667522116722124,0.9050696865294384,-0.9555349110000221
-0.7877041077589199,0.897661269732137,-0.9950718314569615
-0.649194912157419,0.9659832410499504,-0.9989186183229078
-0.5834523942411457,0.9394951046845186,-0.8750927846446064
-0.5261169323570558,0.9701741954951633,-0.8009521329059837
-0.3772700014236349,1.0772493416497535,-0.7291992467574501
-0.15904554049562675,0.9884312815210347,-0.5311403550531709
-0.1320940057566107,0.9869761561264748,-0.32044805343872007
0.02000288376728848,0.9289264785795507,-0.14145269186552112
0.13252268406181697,0.9493586624853867,0.07389530204242375
0.2881420466343886,0.9431393521542486,0.3084389556031694
0.32556978565273875,0.863618215680305,0.5507657096834098
0.47698589001522357,0.9035647114835945,0.759461860860562
0.5185911178988335,0.8008328233452229,0.8516330402824991
0.7076917664401591,0.8013477729851995,0.9278734500483312
0.762076334788446,0.6564903848940262,1.0087539359949351
0.8821531831199289,0.696185648378379,1.0503843493995113
0.849757561372756,0.6154156962902201,0.971424254724821
0.9628446860891825,0.592081357689357,0.8651967866276531
1.0308504448112497,0.44932772007357874,0.8172475085352106
1.0494365374127963,0.4083668694314379,0.6523141417293009
1.0260805217877182,0.34200498916373184,0.5421538521293571
0.968589154205456,0.2572419144983553,0.2895290051890633
1.0025291415732587,0.1645332132000078,0.024384595452019778
0.8912815554278448,0.14205142119692635,-0.19409298131346514
0.8747838178384159,0.025474921347785506,-0.33775719442356283
0.7655731300112123,-0.10232620314105162,-0.5251416024252721
0.6010936632246242,-0.19590151149388937,-0.6596730925184644
0.6702613535787187,-0.2681750877551578,-0.8482108543085305
0.5357737808951027,-0.2800269508657475,-0.8824349769871505
0.3651241772573255,-0.3883508214546968,-0.9871382742652605
0.19951184546104306,-0.5058561647992436,-1.0136625901515701
0.16755530429769344,-0.5924805873591404,-1.0159222164792652
0.06970465023877992,-0.5556796807407647,-0.8202583541798312
-0.1867101188185993,-0.6424732152979904,-0.8626967514088465
-0.12981025483683878,-0.7028702763054794,-0.7019585463334005
-0.400216627394858,-0.7553462250981126,-0.5075384519881047
-0.5173871137550777,-0.8283967361283544,-0.29079911283733734
-0.6604366525200399,-0.7774770982544702,-0.03711073840072027
-0.6703142521002867,-0.87948018913898,0.22845044805511278
-0.7995526365043696,-0.886834422376968,0.30636872174939245
-0.7929223466164688,-0.8860619653259371,0.5947573098777044
-0.9004036370232844,-1.0352522834481175,0.7618315175550304
-0.9548893159637015,-1.011628652408517,0.8484448351202643
-0.9955998249123374,-1.0336694699204978,0.8545252418443328
-0.9876018971942416,-1.0232904433167338,1.0466790738556693
-0.9237571220583699,-0.974427346829822,1.0883935149851076
-1.0245585368595125,-0.968590213911403,0.8856081432534694
-0.9646236165753425,-0.998545395486399,0.8281904469560657
-0.898517363111471,-0.9642855850801758,0.7778059534578169
-0.8710837840913308,-0.9089688426754146,0.6054727491393571
-0.7042076759749413,-0.8678355471847795,0.47671701517465354
-0.690438695518793,-0.8984014172340495,0.34372270238999725
-0.6317798193640807,-0.7981557209631903,0.06415164650697666
-0.4969511082877987,-0.7398151525509723,-0.20476485522093452
-0.35346590428672664,-0.7104941540685409,-0.3552945961545981
-0.23801923252252555,-0.613158767726078,-0.5435756545296151
-0.1676613533685377,-0.6055314087672662,-0.6991417887231973
-0.05686896652946292,-0.5526911838825403,-0.785563942789038
0.10373196659637249,-0.5509574491771256,-0.9860058740889196
0.2254477415816855,-0.4297189131691345,-0.9594927144086403
0.3721793782790318,-0.27814365496417504,-0.9765898245919447
0.5605688778853075,-0.239748653836304,-0.9052660315196527
0.5659671196401822,-0.1691862371595817,-0.9364671143653811
0.6856162016280706,-0.1332796821386329,-0.8438677016144653
0.7564656955318517,-0.12788298765346862,-0.6784084089418729
0.8591642619365021,0.08294766229212758,-0.46987167316774825
0.9783179716858347,0.14743981783803065,-0.29425157461359247
0.9695158541469083,0.1683945195971114,-0.08524048003370345
0.9454779024428136,0.3066824400363144,0.04595267652359453
0.934563310306174,0.37001077143352756,0.28520116656528643
0.9696185876086738,0.42116047031605863,0.5267667022446257
0.9976512358955817,0.47842593952263596,0.7420392134785951
0.903832258361536,0.5591571430525092,0.860314537339031
0.9268700087623183,0.6132881138700998,0.9413371346937239
0.8213339207476925,0.6782972100504893,0.965492947790641
0.7275855103498097,0.7169511595595697,1.087632201584216
0.6703949456365025,0.8041626856988118,1.023756301080342
0.5752753757486907,0.8346861568021512,0.9457526749659584
0.47480906823425806,0.9327591285592549,0.800445689445331
0.36643180203517206,0.8614848312198511,0.6153482849282519
0.2579497058692883,1.0305283614441045,0.5438248197244115
0.10821514649108215,1.0254482588641902,0.29808125150768955
0.011347056117462511,1.0112798108315693,0.05907749827812677
-0.14771433972034587,1.0098351966605925,-0.10671439775397012
-0.3567142279931935,1.0100399233855877,-0.2757078467177645
-0.33525857669246634,1.0144046723514577,-0.5376730085009609
-0.4770703752167717,0.954900671083872,-0.6920241559934907
-0.6414474773369633,0.9560895212745725,-0.693504682097156
-0.7009254374295819,0.9549072219737752,-1.0207663809353955
-0.8828273433886537,0.9311754845461057,-0.9219413837734696
-0.9234762699329709,0.8770719002353367,-0.9232280557598952
-0.8014662546994211,0.9066508143412286,-0.9445770933953535
-0.9362094817370579,0.8169767580604299,-0.9738666460659964
-0.9863007476001755,0.8035961389998052,-0.7253348952839631
-1.0959066446555759,0.7381543195148633,-0.7138871865878764
-0.971664264357884,0.6877346987295911,-0.6170904552652909
-0.9669518393770036,0.5829869620213896,-0.3450785289044333
-0.9505597323929592,0.4274087804542236,-0.05289356064815694
-0.8180505455993742,0.5127957996461193,0.11606982721173463
-0.848839101693994,0.410314149683411,0.3912849544650434
-0.8269463705030324,0.42243559380027157,0.5579508893609187
-0.6592955092859241,0.27811926349421706,0.7234717107751738
-0.6659331096116622,0.20907842826576103,0.721445411143487
-0.4985388541220604,0.1858026782829016,0.8478235088083759
-0.38006847000696453,0.04739537321475111,1.0002586831299494
-0.2894593809949658,-0.08023933909782784,0.9552342312595562
-0.15780673622814606,-0.28412176885362583,1.0582636416867524
-0.029626237294150138,-0.1561172653510503,0.9455707343105929
0.1683325674920523,-0.2871124971420651,0.7835908644868014
0.29116264157052973,-0.4931183126881021,0.6445848209367622
0.3099961454496949,-0.3653643162338238,0.48142488109970494
0.3737962302253315,-0.43264313574210944,0.30353732966395625
0.6254866425689458,-0.5768616473956033,0.15247680721550838
0.6356678118758285,-0.4839526570283692,-0.05986409798818443
0.7496784411072933,-0.6528624355147924,-0.33020126817440554
0.8535310502889624,-0.6941948796636008,-0.5397648752261701
0.9195407348326148,-0.7178031934076625,-0.5613736418913255
0.9235143879069609,-0.8477542510927725,-0.8758133902340163
0.8640909064495103,-0.8319592561337716,-0.8604047702506437
1.0221917847763486,-1.048547564645449,-1.0425502461063
1.0349623334527904,-0.9834616766150881,-1.1413617995478893
0.8888598113163502,-0.9869343355696815,-0.9494692154350124
0.9517898100345606,-0.9360645255930963,-0.8739132257832304
0.8669120156613038,-0.9133790904670482,-0.8978045137896913
0.8787332134191196,-0.8957769667430989,-0.6676761337243367
0.768364047098393,-1.0249932107803743,-0.4687925044884218
0.6124492632015524,-1.1158825333057925,-0.2102521202289463
0.6879277029915746,-1.0259287181860544,-0.016314299112591107
0.486491136161221,-0.9596184530796407,0.1667801752850485
0.3830586899185157,-0.9245545286598581,0.36257624803948646
0.22277715260896183,-1.0198365091594332,0.43046576544172477
0.1031729317104041,-0.8450831797556095,0.6944077474816436
0.025055144285256202,-0.8017376073727994,0.7431745482622144
-0.0682286852868832,-0.7706195222863208,0.9011180591892113
-0.22766511046452087,-0.7527478029809503,1.0271903282353354
-0.34717147571242923,-0.670156004675031,0.9341719228215476
-0.4799239132806504,-0.4987260318302038,0.9705828722921556
-0.5888889989209091,-0.5220110871773739,0.971981398661544
-0.6799220797666744,-0.4265713272344861,0.7862298559120738
-0.8095891310826745,-0.5142659030000505,0.6377666367366145
-0.7775393709862897,-0.3309811458339915,0.4936911727894018
-0.9376079198576115,-0.22713551386452083,0.2653841496624449
-0.9164221084586569,-0.22129829473509052,0.07992008081745047
-0.9648489864789579,-0.13658929420673108,-0.09157338938097208
-0.9887132119301363,-0.05110082827442321,-0.283384448114733
-0.9740270539196246,0.033925237497850966,-0.5376638567680662
-1.0155919959020665,0.14210283470409543,-0.6791212204741909
-1.0005831424208806,0.22983698533717223,-0.8284981777906314
-0.8142998943388651,0.30976138477187853,-0.8915325695422627
-0.8157859895589616,0.383787008030836,-0.9758329828737149
-0.7934153343598022,0.3482403417015771,-1.0110547206838918
-0.6562642520164108,0.508755649489567,-0.9338506057031476
-0.6082125842757495,0.5579279784106256,-0.9493859660281248
-0.5261422533945117,0.655429217764834,-0.8090116563890233
-0.4031225774113274,0.6484399013635017,-0.7586236963845553
-0.2227047015140448,0.7554964431137372,-0.4323310420820394
-0.2101031766781136,0.7146298589196266,-0.27923074958680666
-0.027004417970122298,0.8334332400495514,-0.0626530269969223
0.10509072884871841,0.7380450947372561,0.06370954656877581
0.23300016188715497,0.9033942149064746,0.24941963076523732
0.43599073469993255,0.977143123725517,0.49041526306672084
0.3990637622795283,0.9330171552306153,0.6124459776646978
0.6194954543840376,1.0919859533148994,0.8588646122624596
0.6200474898696334,1.0612105542662131,0.8651778592854505
0.7708906214326227,0.9932830726317361,1.0284440554928265
0.8250674864078816,1.0020724601203415,1.0326002418752844
0.9014867966410234,0.9744909839293272,0.9899628991180773
0.9520359908591617,1.0458166570709435,0.8671160928111975
0.8972600898068132,0.9036240907869841,0.7891159086984554
1.0340976683122767,0.9135011927949495,0.7093983779245467
0.9891760809949273,0.9114204781099349,0.4425956790713932
1.0135280666782196,0.919884380347606,0.4324291977849878
0.8691084678689571,0.8331399179376859,0.16726863804627495
0.8258045710142857,0.8310670593594734,-0.1558422808114891
0.7893686176357331,0.7816388287358211,-0.3381821092468036
0.7797645074471345,0.6645803997307795,-0.5951601174670355
0.6988106653152815,0.5479609555492038,-0.6490487638547208
0.6414220004263668,0.5728892395514816,-0.8616483439166408
0.45980215374154515,0.4953473115833479,-0.8889446018336757
0.4613877571059644,0.3342721948565765,-0.9792222778615431
0.31529503871043973,0.3906159415816165,-1.0421060137159688
0.05526983306555766,0.19171090251567557,-0.9935982652895715
0.059691918422027,0.1930654689995814,-0.9472213863059873
-0.08969922631395053,0.11745268292130398,-0.7840315545895631
-0.2728078089829293,0.10678767357670313,-0.6740115489239455
-0.37317622096065045,0.017686366632685704,-0.565446960664312
-0.47603638376654417,-0.14890193326157727,-0.27396815879625114
-0.5707692783856911,-0.21584801834483922,-0.124827181594983
-0.7277664326480517,-0.2877075102933012,0.006611525386308714
-0.716483051625229,-0.36831233685099696,0.34195764768172116
-0.8519675187422263,-0.3972922766842274,0.5371443810821683
-0.882594830866068,-0.5016624698690696,0.6507046326031379
-0.9213434963953206,-0.5693445635733143,0.705798479522413
-0.9079096681208101,-0.5777584578206818,0.878214784641753
-0.9629466701776785,-0.7780090969852957,0.9689344786401167
-1.0241509513303497,-0.7035390453403206,1.0427420461118946
-1.047737957875406,-0.7744088729536454,1.0138767784495788
-0.9442778743262245,-0.8315207945849166,0.8412309817636692
-0.9350575165805574,-0.8735978743463207,0.7530440199382614
-0.836050209936028,-0.8635499250158538,0.673787027722869
-0.6927610030201168,-0.9838661560053434,0.4348424488323204
-0.7060088687378991,-0.9942552927675649,0.3793774606990007
-0.5942920029713695,-1.0512891064223047,0.16319642323686534
-0.5766381468998895,-1.0289401681198769,0.004765904565259035
-0.32272119202812827,-1.0780638046528899,-0.23010279197027422
-0.18352187882458987,-0.9116040751903469,-0.5150662132096536
-0.17374919582012585,-1.0268794178834662,-0.7130088791743745
0.01155502627533834,-0.9632192144125132,-0.8671882337382961
0.1307984478642611,-1.020614827641343,-0.9094074107558074
0.3079095218523078,-0.8887449324374924,-1.0029584538568137
0.38852578753850503,-0.9855528694571544,-1.0217484396312733
0.5002438797562121,-0.8755850855628108,-0.915689260531359
0.5566459136683486,-0.8958877456980707,-0.8879565390283858
0.6574919371449793,-0.8105763846059967,-0.7810024682194446
0.7871682963211349,-0.6076021842772508,-0.6603499950587881
0.9009672527922531,-0.6606180301490356,-0.5214704121723368
1.0227100100305195,-0.5560124384025094,-0.3560871051655559
0.9357645405730108,-0.38587894116749044,-0.181953228879568
1.0087384229016174,-0.49599685240571406,0.07191459350165486
0.9193451797486134,-0.4277186913009422,0.387667175931552
1.0117697209283945,-0.33791669849419054,0.5333764725335824
0.9746463244201519,-0.17996993429987562,0.667313990773623
0.865535248633278,-0.19036198115593853,0.8561655611745148
0.756105964031813,-0.05148555739455144,0.9614868737895452
0.9086521812938602,-0.0626756787050084,1.017206553148272
0.8103991326272959,0.06810308187307315,0.9677094545736339
0.7160414798118581,0.1840117046002227,0.9269234406140598
0.5127984657585214,0.23882109611636998,0.8875546748908489
0.49466925368991826,0.2738774675385485,0.7752523501950379
0.30131304447967855,0.32881751017395383,0.6501519154677295
0.22948965501212945,0.4292462854388384,0.5825585285761165
0.21013621031037621,0.4790315361122029,0.3294275531481469
0.06841559163159956,0.6267581546484718,0.02477422987315639
-0.13895814399772774,0.604299574661421,-0.1771147884390092
-0.3076482882926699,0.6379209941900367,-0.38184741248807325
-0.384644471227892,0.7435865853062696,-0.42325763569369523
-0.46488374906676955,0.7617901808079574,-0.6140670028919202
-0.579957745658629,0.8147406744005107,-0.8169993681264506
-0.6292453621311251,0.8200053383842784,-0.8486959474439533
-0.7988821728684412,0.8731541283808035,-0.9952177952285705
-0.8023198105223459,0.965585605902696,-0.9238923059550082
-0.8793260323669039,0.9117985620762938,-0.9866887278135613
-1.0242087018539225,1.0307850210099494,-0.9126408400435961
-0.9751382027171758,0.943864937572171,-0.7575718400292167
-0.9177385412890972,0.9211485729435307,-0.6897700702426376
-1.0667263888089118,1.0364589587177495,-0.482319969187971
-0.9433015442594939,0.9834610343765453,-0.27927002491200315
-1.0384246576511837,0.9673633201734119,-0.07001819303829651
-0.8084705680263271,1.0009137642362491,0.1618142053133533
-0.8445679769504009,0.8936640178307198,0.2612725687546314
-0.841341745310063,0.9078913540458857,0.5034026075014363
-0.7035923144399174,0.8535161718459533,0.75753404362886
-0.6325334110859332,0.8167428543326496,0.8303596816940054
-0.3911489449354683,0.7891884593880157,0.9013559240669793
-0.3415186320902179,0.7615853470028008,1.0051398182877955
-0.32842306976125973,0.6307365843867734,1.0281482172810166
-0.20145680725944431,0.5742850549678804,0.9922549712926327
-0.053986945390189944,0.4705417449983387,0.8509991323811745
0.19990705464147884,0.5625475182101406,0.838198659815233
0.16050348563626768,0.3962028739952216,0.7319197916256919
0.37265492117702376,0.32011974470432003,0.5038120491067635
0.4814563186128688,0.2818617863440937,0.2850045740708292
0.47241190266519995,0.1322121948654083,0.16619281285019544
0.6598983542224168,0.12052490971499735,-0.09677803022796548
0.7455136019583835,0.030275346702447543,-0.3926294467454259
0.9035430268695044,-0.08916230770604036,-0.47814251742746866
0.9860296491260216,-0.16696250021296472,-0.6062685549131006
1.0369533619003923,-0.22027890476385775,-0.8124884372758864
0.8959289280040524,-0.30640939272361684,-0.8689581973498982
0.9799861064377074,-0.3648834727633012,-1.0475342982860305
1.0672135553069004,-0.39778083584069124,-0.9942804766101095
0.9431621010889996,-0.5530173509208138,-0.9750356884022201
0.901902491365197,-0.5416464422630888,-0.9872371868557451
0.9976343356522067,-0.6597510793939471,-0.8502051116616888
0.8564068351271567,-0.7034001178223075,-0.6518755437726386
0.7484604814818597,-0.7116181894802528,-0.4801524229382026
0.6626096620938702,-0.8731052031532779,-0.3261248707739357
0.6969939987912122,-0.8661614335490686,-0.15539242730044023
0.4658119232753888,-0.9196817199111165,0.1323159498862677
0.35333156558680734,-0.8929669175576929,0.42116276418973253
0.22890125850966048,-0.9558954003995849,0.49493309788309925
0.09480627276222611,-1.0215413702409863,0.7538490732209266
-0.09348290898928467,-0.9201511655323361,0.8623548830438742
-0.15558932272087198,-1.0426822227778225,0.9624284691805428
-0.29387060041459195,-0.9852801289245325,1.0255958004495698
-0.3167113691519119,-0.9674209832192396,1.0289897548570672
-0.4771579868073934,-0.9958970982073148,0.9917821226595249
-0.6160152239727301,-1.0084657748373402,0.8689339297853127
-0.7569087343988563,-0.910340490900361,0.8387953426675036
-0.7230627201709803,-1.0185386906927651,0.49622182185482133
-0.8025636844253143,-0.8893791716376265,0.47082052019600484
-0.9551313565415892,-0.7670097843011103,0.3043675936075716
-0.9691074093479687,-0.8923167021238557,0.06618777004667521
-0.9517938421780763,-0.7265875464398635,-0.10422549145686671
-0.9094248592557246,-0.7757302316285459,-0.3177139984933312
-1.0034285183865768,-0.6531332096825664,-0.5071219642969914
-0.9543954005619623,-0.526646425889741,-0.6213864806812279
-0.9335467746709365,-0.6323934454501132,-0.8408077319941673
-0.9717119496025054,-0.47205931968966514,-0.8959613775773342
-0.8730299972792863,-0.4089356777913836,-0.988685655765906
-0.8081240812587759,-0.40767659729133776,-0.9646714426941004
-0.6348701634967653,-0.297774200262677,-0.9688606505789334
-0.5754118046159479,-0.14116355002725756,-0.9531294079485835
-0.5077853515461846,-0.05712189244517029,-0.891518417792119
-0.36192549856665446,-0.044763899254487184,-0.7026032592989767
-0.2072999857010698,0.03720262801654787,-0.5160271185263144
-0.07140401893808103,0.0778411683373829,-0.41206570095712697
0.020152946942743288,0.19802021883423324,-0.12337026255705019
0.23515535745694982,0.23954096708054395,0.11066588556926892
0.3840880057473408,0.3572869085483314,0.31256824544504963
0.22556999991394983,0.42220764395041765,0.400518692483785
0.5652481888809969,0.5311991300952946,0.7294227281115806
0.5037509370735855,0.653753416336553,0.7962406565776045
0.6899735999077938,0.5712802791859273,0.9233987460856926
0.7624382185105272,0.7286495000648723,0.967562050929848
0.7965004503357705,0.7347873752784849,1.000500126689177
0.8438750391958161,0.7974863534412145,0.9405391722172817
0.9219311298875732,0.8616939166004924,0.9119709507468513
0.9774074943166281,0.8578375686087978,0.7015450044741937
1.0382562829226567,0.9641797436132539,0.7142429113242356
0.9787045532137117,0.997214818217348,0.3981917499446213
1.0080974362596298,0.9707663183670434,0.3104977915815538
0.9615654555656094,0.9035492752043706,0.10550373020352659
0.955185905308971,1.0118889485622058,-0.04371375420714156
0.825286976069011,1.0812095973083096,-0.34102752465100733
0.8729429999371683,0.9495193539210017,-0.4870971670817723
0.7485455636876367,1.0136237835159871,-0.6281501543930477
0.7004375550991135,0.9676856567845912,-0.8757295648768351
0.5291120916048049,0.9900249115632489,-0.8837093702985387
0.24089675859239448,0.934338016613857,-0.981988182112563
0.24687412954972576,0.9578380124270314,-1.0731185344670315
0.11666863781995941,0.8754099676550611,-0.9763426391090878
0.058194441446128856,0.8280949027150284,-0.8205739204017692
-0.10758507605682281,0.7499529937798114,-0.7376159199720945
-0.2649162625650429,0.761027807805077,-0.7223526868190446
-0.3577713273157476,0.6368294920492453,-0.4468816458022919
-0.49339633140101835,0.6540472355024456,-0.29365086031714943
-0.6052073704318393,0.5993957015897311,-0.10831528451108041
-0.649695407203378,0.5506214942732901,0.10515150991047709
-0.8074431979944773,0.4015380751913557,0.29997603338205053
-0.8308744137521483,0.37338925375676507,0.37962349556622066
-0.7598395556697565,0.18740493066290526,0.6732361747583789
-1.0120353319966837,0.29166757680307176,0.7501848863999161
-1.056817900331361,0.08233457118417349,0.9027432841570541
-0.8988333043757428,-0.004917116655461545,1.01476160924012
-0.9940723512776773,-0.02581430172368713,0.9374889645228245
-0.9805524117628576,-0.1481766975161895,0.8876645923647235
-0.9950452426357402,-0.1708088402058228,0.9717173063492618
-0.9394219137795421,-0.2266802135614,0.7984226288388884
-0.8497645133352852,-0.3732451696397127,0.6172834835559045
-0.8290134397358598,-0.45317983153671143,0.5205755603841971
-0.6637833566112914,-0.5655998188482657,0.22703809899428604
-0.6364633333399751,-0.5800116180066127,0.17938295587549272
-0.5035556253338299,-0.6299784096762514,-0.09496617775699946
-0.41629010699235147,-0.7277499273421997,-0.2711623397435268
-0.19985994653844974,-0.6849553744312405,-0.5508320250655674
-0.15773295381987912,-0.8674926360942751,-0.6785282034146668
