accel_x,accel_y,accel_z
-0.08453774110068818,0.8308192216681731,0.8425344354628179
0.15757401354697548,0.9669789306480169,0.8822901635800798
0.2958615799757163,0.9654237533386392,0.5971658328307979
0.26875347970412,0.9115329953392425,0.4557314058770992
0.5268140303184331,0.9860155782440202,0.22426923925669776
0.5552308302357463,1.0034548488421597,0.11001956557556714
0.8234709783615086,0.959717882288195,-0.14723284431685982
0.8620923971359762,1.067343060845102,-0.330115648270646
0.8211186024142616,1.0299103496128335,-0.5191148761591861
0.9569005805545806,0.9410298706087972,-0.7074797851694824
0.9571243799035171,0.8657411371981347,-0.8053004664305101
0.9322026171874678,0.9338863599401106,-0.9175107726054058
0.9928247568881874,0.9282385714682218,-1.0008017894503716
0.9764721336694244,0.8833933487667425,-1.0366343854436195
0.9431755527667367,0.7897509530255372,-1.0104424482964807
0.9599199988518197,0.7903635471634455,-0.8800811414102196
0.8872317008244195,0.8595561485458736,-0.8278893978507325
0.8119992284438282,0.7348922883664308,-0.7043645905708569
0.7273921371456403,0.5350324479484838,-0.5403105004092097
0.7032426763957503,0.6312993806423658,-0.27649824285690333
0.5288398299042623,0.5755836937176396,-0.11711696484889673
0.4779653780764028,0.40992846505448344,0.11187770763570062
0.5106069246182042,0.40099319947019346,0.260110656303293
0.24405923206135896,0.35030581650743753,0.5342525876666668
0.05608339209667308,0.18956125009854097,0.672910143156086
-0.05454961107467521,0.12075050339842347,0.8842496839794272
-0.08067499396283832,0.028262290646845212,0.8267335458413032
-0.18412355836341712,-0.05530631985599481,0.9851286132728698
-0.416031559462705,-0.18867785632247408,0.9433729024176403
-0.5189258219425504,-0.08135220946911131,0.9550780485822001
-0.527529949036402,-0.23244902230569991,0.9499341178286932
-0.7046446564784938,-0.3278394558239018,0.8947199211248367
-0.8612598214534598,-0.3356766080029531,0.5786991621016383
-0.8186690553156518,-0.40838860171612673,0.4665394766869107
-0.9425369029025659,-0.48409063260591473,0.31113049663820735
-0.9532472236636301,-0.5035466069601613,0.10372701593468056
-1.0362102961119506,-0.6273380707512507,-0.10655105439890405
-1.0593126190223006,-0.7174014829795872,-0.37393508485967797
-1.0304166206748695,-0.7656758067858735,-0.5272713661154687
-0.8975653133040026,-0.8620067622594894,-0.5366201109442699
-0.9389683106056439,-0.7923904838344823,-0.9036354837252137
-0.9646048830706899,-0.9547939041422423,-0.9546239409332954
-0.9217212363648805,-0.9100056550833816,-0.9649272974505188
-0.8038351392893504,-0.9912887298305928,-0.9561240707754839
-0.7706742518699257,-0.9302454021067519,-0.9639316633157392
-0.5939308530523514,-0.9256491588200653,-0.9284162353172353
-0.4783182272670505,-1.0477717685672707,-0.8982317231611253
-0.3003027481455927,-1.0301398535834243,-0.596967906100311
-0.27557238580529686,-0.9507227724213008,-0.5617378275131671
-0.1686183473847173,-1.06134081306829,-0.25815587126446865
0.02784214588148784,-0.9245738592417471,-0.1743937138975745
0.16932990500732592,-1.0109589335151614,0.11375867868504222
0.17974694718259282,-0.9123321193381776,0.26082753032889416
0.3713496445392743,-0.9177715909713162,0.4905323332923074
0.4470428870658008,-0.7965260489771434,0.7101503086727219
0.541938928551425,-0.9037448783971185,0.8102298618494197
0.7186794753515683,-0.8273515274079839,0.9041340398357748
0.8252475047861664,-0.7607438771143148,1.0283068789386653
0.9199428781779244,-0.6492812826045383,1.0269665536830124
0.9110065433053282,-0.5788319408132593,1.0413781251212466
0.9124316301571628,-0.6150801013936882,0.8938701974347525
1.0331501915858925,-0.46978529516906337,0.8443161947865142
0.9796601450532623,-0.41242052361959064,0.6923002435658141
0.962249580655662,-0.3294551735732599,0.5061623871665369
0.9986999095756091,-0.2032889703581176,0.3303009431759356
0.9458467202847374,-0.23132780966995406,0.03289593527035935
0.9594361699371043,-0.07599304786653302,-0.12176505062890187
0.8518276193461927,-0.021730502752851346,-0.4034477707571409
0.7453700463701144,0.028072476700490616,-0.45819158414097594
0.5822491340284446,0.13186907564886158,-0.800178999587998
0.5613744351927208,0.23537664240462394,-0.8408734430424796
0.5547625216360285,0.33742709192207343,-0.8625996251444239
0.3469444575261123,0.38417699413776485,-0.887132395987198
0.20724778625025816,0.3487381632433575,-1.0585715900301877
0.12048251418231591,0.5107327254500796,-0.9695000287825867
-0.08204368216046704,0.5285567030617101,-0.9063919774099989
-0.05634319403806749,0.5620528621618777,-0.8237866090888447
-0.2078695880011281,0.7294987212303501,-0.6329212443278504
-0.4027382396335635,0.774801918284047,-0.5910636280526671
-0.4677591007064051,0.7729089331875377,-0.3087603331162226
-0.5228862372212526,0.742867111155069,-0.18549814341415244
-0.6108243101996863,0.8621748669220535,0.16952907146636215
-0.754520675769732,0.9880426356416672,0.3271327370196691
-0.9135170231456433,1.0739987111960207,0.4390063163969335
-0.9486229175637314,0.9953693435748902,0.7619351788985145
-0.9511565652140178,0.9179969656444424,0.8433543323289383
-1.0414489773917919,0.984021817148376,0.9136736036422399
-0.971162953687089,0.9961438774848341,0.9549599089295238
-1.054760158907815,1.0261851596364793,1.019210607246723
-1.0991449642852777,0.9526140418859079,0.9565700751057437
-1.010998626508814,1.043240318801176,0.9700603146354176
-0.9398977776365629,0.9427206618289685,0.7549263562743086
-0.880070567278365,0.9193740057649362,0.7440407764070255
-0.7977079384137818,0.968846070566185,0.566202863137807
-0.7384288048663734,0.9156761168857444,0.322530754196105
-0.4873415184771942,0.810007948413066,0.19705651471114932
-0.45544693648167067,0.7502670797823359,-0.08995876496795766
-0.3929057839953829,0.7337453654195785,-0.41722212166371136
-0.3099590310416388,0.6639064111971752,-0.5285492462506955
-0.10440454548178146,0.6916626400970118,-0.7432145916971491
-0.05041198589092959,0.45605632715739775,-0.7185195986214394
0.1288171533632266,0.4503420499337164,-1.0057154444853742
0.27917052055736974,0.28342648564583817,-1.0184178681451166
0.43599242429119334,0.2910823253657674,-1.1148093598123245
0.4344161439921705,0.15325425259484,-1.006860407427137
0.5297026750179062,0.16241959446012394,-0.8967202983863373
0.691489542562559,0.08534850578604714,-0.7523724532308145
0.8000337327631768,0.07518294120703162,-0.721179396756214
0.8263081440155031,-0.040790146315926645,-0.49327275814620375
0.9441341326332336,-0.043854013285630766,-0.3128789513384864
0.9650973934858323,-0.3190762546988202,-0.06700193204371882
1.0193033657652222,-0.33277292634075406,0.03635677959599119
0.9775174885788115,-0.3995129667248578,0.3513828163842935
0.9424766570424796,-0.431378366816762,0.49643412237814044
0.9760203858920842,-0.6443193502598553,0.704921063599508
0.9315544809363299,-0.5833525573585981,0.8554622623649871
0.9589430337855431,-0.6943953417092806,0.86551726296759
0.8534334639177245,-0.7870018830149375,0.9651172145579545
0.7561587763471795,-0.7637493369375566,1.0140474706752645
0.6994113526064331,-0.7502842814116972,1.001313895724784
0.5413302457932716,-0.821459326430547,0.9372961238504465
0.4149296980963512,-0.8232496750518847,0.8000951153460912
0.3700435571340483,-0.8582001286726376,0.5993621206640279
0.30535604465893174,-0.9523830055782491,0.48831348291541654
0.23663387962639237,-1.009638246740333,0.30242875351561976
-0.0035787511499295634,-1.0081080172842176,0.12102592351817827
-0.141136509293278,-0.9961860844188233,-0.0744962421140805
-0.3490216991102141,-1.0047290477535347,-0.27653974170180307
-0.4064862274647913,-0.98001025027411,-0.515456399215603
-0.5242974634745086,-0.9942983304487041,-0.6549510423512361
-0.6418669192787823,-1.025427092975627,-0.8413935336957166
-0.6977208257532992,-0.9681250366074975,-0.9220364062242857
-0.700556804396686,-0.9661059252878326,-0.9303086837567001
-0.7857675378660594,-0.9500639134003991,-1.0291918774512623
-0.9079223186802599,-0.8490511452381069,-0.9540853830117297
-0.9195513147192798,-0.7987347216917933,-0.9508939015118482
-0.9082233745796173,-0.8135233811473743,-0.7516870855725128
-0.866178074814795,-0.6938807952286169,-0.6526125774570094
-1.0165124460166772,-0.7590001299165506,-0.4213863768890277
-0.9856682549133661,-0.6436261888317775,-0.3007181903995228
-0.9491988374874324,-0.5217299709193862,-0.08713502435163284
-0.990593746451214,-0.49356136254724753,0.05724778665278047
-0.8130039662314881,-0.3745008566840448,0.27154090651553464
-0.7441777341767059,-0.31761634609779155,0.5128819999121894
-0.6897380467736922,-0.28792816211013633,0.6654999332971576
-0.6329677821657371,-0.1781713871374732,0.8118187493558221
-0.43621702964014897,-0.12498562396659868,0.8651149063666238
-0.3158697614192024,-0.12727536621476895,0.9504300117459311
-0.20075921904212435,0.016601097486660714,1.0132340470655647
-0.12944599246380922,0.12933052399183914,0.9387203701358499
-0.005712293295155024,0.20087589003860484,0.9359654629345775
0.16791648629722428,0.3321095415471714,0.745276093664789
0.2834002590245717,0.43104320696060333,0.749032889864754
0.428725756229888,0.42594529392013575,0.5222964959096187
0.43983184968706135,0.5960992959822914,0.37349061989727267
0.5412722424338097,0.5982964411979486,0.053669820151955386
0.7038444728011778,0.5717173335608798,-0.17640337851998755
0.8260542376199416,0.7560738007303344,-0.2815093075893044
0.857613893161743,0.678052801960664,-0.45188274212707635
0.8707360486971998,0.8069442404094461,-0.6593759708392544
0.9525769510085014,0.7042592237072373,-0.8821503911999783
1.047640771471701,0.9290404842590436,-0.9387732293201182
0.9358340842727844,0.9902847457451118,-1.0250647492826366
1.0169814236221049,0.949962789334073,-1.0083773874728796
0.9743758682551972,1.0984240247364834,-0.8658232741968379
0.8897339010679718,0.8957091079129628,-0.9113251786513323
0.961459431467223,1.0060295585608279,-0.8228605815752882
0.7915889774200401,0.9538978303746891,-0.6722914667615448
0.8522638399108297,0.9343202776189447,-0.5022736790535773
0.6452908474550918,1.0425258252938148,-0.40718108542688336
0.5264969144653123,1.0467456383801685,-0.14343107031493915
0.4525395581996157,1.002606757817052,0.09968567083286453
0.42625651503845696,0.9252631184759057,0.27176640457084644
0.1895502563581227,0.9097846194269872,0.5697383463442371
0.1162387432755593,1.0635239267248957,0.694690252365322
-0.007047127725242562,0.8547638201197206,0.811586819824821
-0.15654881868200582,0.8263235788828337,0.859175659321368
-0.18404649952283042,0.6917884842988224,1.0690987434152528
-0.34810064317867495,0.6912147633752564,1.0393462674972682
-0.5778946186676117,0.597441368188263,0.918349522195294
-0.5964187051763008,0.566993888020515,0.9616601102826847
-0.7368222037676877,0.5709906726945304,0.8124291560801313
-0.7633436894179987,0.36200072319949905,0.6161246097650667
-0.8618499235822131,0.423916767069325,0.49182638133745765
-0.9342930718124136,0.24125292063486894,0.4221895829806682
-0.9246535473467766,0.17935808256710162,0.19764271515500836
-1.037210429674135,0.1148154947803454,-0.20439335912940154
-0.9389946528316304,-0.0712044867281035,-0.2610241747567008
-0.9975931424013416,-0.00579781824463689,-0.5451674494529543
-1.052896877422262,-0.1813585409083152,-0.6095952525617343
-0.934890194927577,-0.26004486767862767,-0.8874370525185955
-0.8576387237127432,-0.20168855370476096,-0.9991230674830687
-0.832372784225238,-0.385002655018939,-0.8958234432249119
-0.754672942596512,-0.39118629738825017,-1.058953371120802
-0.7019575790205032,-0.4808528973961879,-0.9464040654230111
-0.591466266031569,-0.5100659343256011,-0.8564851287130223
-0.4115969175577859,-0.6994420716289431,-0.8699169998717022
-0.37381361010049746,-0.7153202949348417,-0.6400106565012967
-0.21814451541750887,-0.67671713028317,-0.478666918856131
-0.08760729264288639,-0.7206876015786963,-0.2612713915877073
-0.04911977963744091,-0.7693279442832932,-0.029874109768852478
0.12071781074191203,-0.7783060513119004,0.15535897868858078
0.2671250061990973,-0.9212986996132339,0.3699994697595691
0.325453969394537,-0.9770259191387523,0.5563007182399222
0.5735755806787908,-0.9983477694742094,0.6172464793327946
0.6232866897138197,-0.97295526670474,0.8792405454800643
0.668578917734013,-1.0183242087055218,0.8954562890037764
0.745316678995386,-1.0076362334130395,1.0435777719435368
0.8255579409680688,-1.0645195255231847,0.9932499170626705
0.9802032650667164,-0.9779878844451004,0.8698039434642295
0.9488448699226313,-1.0270927750562782,0.8695295189203465
0.9581001811684063,-1.0225995394428953,0.8129507243992322
1.0501940398687721,-0.9179707955070959,0.6849379606562064
0.9504396086527239,-0.9017327464081536,0.5620714845416475
0.9968104249338524,-0.93821193182933,0.309173174855683
0.8887968651216657,-0.8470561327055766,0.12818954881019864
0.9344046101267792,-0.7154785197222594,-0.09945417242291185
0.8764281117199757,-0.7367123811919402,-0.33155728244019245
0.8062957785792791,-0.6423490958736968,-0.4679554867996243
0.6561444347013389,-0.6077010536984139,-0.6938848134361167
0.5821282098336612,-0.5515580696145904,-0.7282100271010106
0.538307178886491,-0.4954959686032931,-0.9767936616351864
0.3769285534113314,-0.38420661590559596,-1.036966194102949
0.19548650375641777,-0.3751221655159415,-1.0536798538760874
0.16254815205562753,-0.2742482849005127,-1.0478990189369275
0.055780057455379055,-0.21160852997656082,-0.8784344606320049
-0.1774794213941237,-0.11775320620558913,-0.8612549360396293
-0.2562123655935791,-0.0009463460009499353,-0.6084698288982893
-0.2711267101495767,0.030924529964264008,-0.4058166626073889
-0.639467221517038,0.08352683202058248,-0.27643370796714295
-0.6747250888057996,0.23893431504677703,-0.09647625314013501
-0.583673272841509,0.23282445653097375,0.07943948653113844
-0.7682139105444448,0.3302189748675441,0.3259435065146942
-0.7933116308571289,0.3083516834945552,0.5018093415316411
-0.9095884609870856,0.5662342302988272,0.6895659580463006
-1.0087377449432053,0.6131476762542992,0.7857174416489263
-0.9605172369992862,0.6448421233138873,0.9668238358609169
-1.0286106284915748,0.6687505775362008,0.9920598120221394
-0.9907770456155089,0.7588983410579307,1.0433193203528859
-0.928468520493595,0.7613937602185361,0.9667234222644701
-0.9337365606721852,0.8609027965255541,0.9781516918544939
-0.9136314665655033,0.8642225358580221,0.9173048466280576
-0.8214444712399153,0.8393413448899767,0.5806402359002015
-0.7149565413915769,0.9883764954486678,0.46060228530285896
-0.6614822223759732,1.0154585866669232,0.22504754730059495
-0.5344036001884176,0.9405083950704445,0.09724145013841802
-0.5281638603485684,1.087312857752653,-0.018556390052056698
-0.2556496230336638,1.074825523486483,-0.3210502870255638
-0.252181406883906,1.013606580439099,-0.5941785831997429
-0.10552831948729238,1.0052139412442538,-0.6525616687881239
0.048304893875719984,0.9916586253715478,-0.7863443496244156
0.12263934022255693,0.9543052121089441,-0.8848297790671209
0.39718152061234124,0.9642055879545932,-0.9650690856864261
0.37174692351884414,0.9036056193811524,-1.009881088460601
0.44851580475929875,0.9051266991847128,-0.9208839376877501
0.605125241692428,0.9271989831513667,-0.8407653636860667
0.7581949356889003,0.7655162347526371,-0.7753444372964613
0.7924779611469828,0.6932630123757917,-0.5972342573490036
0.8037295865423193,0.6401585025655239,-0.4947729183567663
0.9579653431572146,0.6030537865820833,-0.25719520418600383
0.9626670114679506,0.5402124459775868,-0.0835627315639684
0.9564031612277603,0.4334398704859089,0.12532185814486682
0.911822406529264,0.30209320172870024,0.3399940339797543
1.1173478337457445,0.3385812922050676,0.4941588572938138
0.9998839280814855,0.17476002312975045,0.6906042122681503
0.9482265717087489,0.17888506733977644,0.7695493285464943
0.9112698923770578,0.031173021629242695,0.9433249172907249
0.7894318700489887,-0.05047820190943379,0.9731941260642113
0.8182163671541106,0.05239603635056468,1.101416618543673
0.6567548421192324,-0.2357882541222145,0.9799150131603258
0.5568616717274799,-0.14407837459082182,0.8253152579646279
0.42143938014505095,-0.2499530357677797,0.8127043933759899
0.3839324145126782,-0.3099740589788539,0.5882836724520221
0.3061699454595117,-0.4192127416725398,0.5609654633912894
0.16768540828491357,-0.4910547507077676,0.33625308416325894
0.0166003012057852,-0.5744793653256596,0.042946723886016946
-0.12224025137135279,-0.7010351591245879,-0.12005080792821045
-0.24556129903948218,-0.6628656462318732,-0.35170895422338094
-0.44998174721310014,-0.7268453160127671,-0.4642268332425249
-0.42424634965599706,-0.7542920020955273,-0.5302603228309859
-0.6535666086777292,-0.8286926988490628,-0.8787816357444618
-0.6623425452212124,-0.8810200568144634,-0.9061890883128702
-0.7684859088297772,-0.9571997857663601,-0.9971729709602849
-0.8090920637028977,-0.9769057829647857,-1.015615999654476
-0.9506335216732922,-0.9110455393453073,-0.9299198908940776
-0.8962463351457145,-0.8216458418728841,-0.8960930640750743
-0.9765101750418371,-1.0065918240819742,-0.9403351934369069
-1.0587953932728733,-0.9009235948546228,-0.6317033825257068
-0.9966435179061025,-0.9988489039927115,-0.48836194793911186
-0.9671955964010724,-0.9735993067873031,-0.40389815651634364
-0.9629878766970711,-1.1217527436359185,-0.12378447727140196
-0.903915627979789,-0.9993307336597351,0.08045006247301667
-0.7927813626908607,-0.9101316986818483,0.2354172541298868
-0.8084774163102776,-0.9342479678781916,0.48408793874782685
-0.6243417126211366,-0.8563122165451679,0.6098203404346708
-0.6349035708079105,-0.868581765835284,0.9154938143801616
-0.5368919826153385,-0.8015200805798053,0.9855567155964537
-0.34840933667404794,-0.6924541395313073,0.9389918437826366
-0.16866883033155206,-0.642216415913796,0.9732784699204371
-0.06469119142729576,-0.6449212703897633,1.0079889603381436
0.04380907382444074,-0.6239819018348901,0.8701767508151548
0.1796549391202626,-0.4753430674702059,0.8092402371567261
0.25513606082772594,-0.42976481897455204,0.6384194556566873
0.3900057440631812,-0.3478663839194063,0.40966543423875484
0.4942149222860557,-0.16354502756303008,0.17596177942606805
0.531817587694692,-0.2551232621106308,0.07140909918514678
0.7075795928525698,-0.14548099486206692,-0.0834381731338743
0.829898170526241,0.03928920098868084,-0.37928839372349266
0.8806989364403833,-0.04753977398570293,-0.530896152457093
0.9689438216206042,0.27165581004936346,-0.621268792841062
0.9241656161462705,0.1576617947548025,-0.8259130999805513
1.0806322319880006,0.4241917066581898,-0.9242637741361382
1.0291806370848426,0.3625967434019488,-0.9646244546393412
1.0434476062490554,0.3931647979225831,-0.9492564035168916
0.9939793068484586,0.471344444533372,-1.021055833528031
0.9688868504513466,0.555945064625201,-0.8668892483171492
0.9170503752575765,0.5780642984530769,-0.8361585289218693
0.8485651069657213,0.6090358248967682,-0.7391951693440156
0.755257172389015,0.6760507993784003,-0.49544124943974616
0.77244487669203,0.7992157786635262,-0.3012369984050376
0.67721300647362,0.8436717448435976,-0.07109609470548642
0.4391395795077493,0.8310252176479316,0.11188095587370066
0.3861350532046839,0.9540408441366958,0.2554949621840041
0.23700957603772282,0.9974356318448492,0.4843568752304611
0.14013956673241013,0.9935654612441374,0.6644211322476392
-0.047316149844352624,1.0128570211311585,0.8353092959774431
-0.13488601416542545,1.010204973906861,0.9401929524248194
-0.2584691756173528,1.050186806503782,0.9084521031585916
-0.39133773831304886,0.9936772775792287,1.0601585885224412
-0.5587566993787192,0.9810044147607323,1.0091248686654286
-0.6715553960427765,0.927744144187967,0.8759185404148738
-0.7677093716033492,0.9781761306925117,0.7416386643000521
-0.6629245482215207,0.9613762503275629,0.6653424014965712
-0.8389754562021993,0.9087646751563998,0.5367783786903213
-0.8272783504879124,0.8437649724811747,0.3282734690225834
-0.9798921456264786,0.8419982746140218,0.11607347014940672
-1.0025285026035808,0.8488264053714352,-0.07827697255559532
-0.9950587112457961,0.7394156911030472,-0.300993630563544
-0.9304237733194709,0.6743814583407377,-0.44391503688452916
-0.943002379315171,0.5762459184216797,-0.6443527064584041
-0.9801644350197405,0.4931817829300451,-0.8275292559257774
-0.9636574408730026,0.4712940785236944,-0.8187781938107795
-0.7982226116419731,0.37124389372445415,-0.9933387048996665
-0.8385192684393065,0.35706452950757034,-0.966525287751432
-0.7265946674368782,0.24265939775956857,-0.9625137489654474
-0.5979778035369545,0.27429138707614936,-0.9449117384911769
-0.44829410190933083,0.10073915279601448,-0.8168200541650671
-0.37167610487661373,0.06915318687268777,-0.6698722313423674
-0.24196392422276142,-0.16254252325843913,-0.37819991309333223
-0.05196959326064232,-0.13176905346067094,-0.27576044254899845
-0.014482194652178017,-0.16083465075733244,-0.10948869312451387
0.19130935625875922,-0.25971417390143015,0.09075409041046084
0.32238760325965465,-0.3968699915774752,0.25705405573018136
0.39908147531741045,-0.46335715368462804,0.6120689025474171
0.5099089209505295,-0.4584590329895527,0.7296090357586975
0.551250659646257,-0.5411322570112849,0.8719207390417371
0.666762098049404,-0.674002804564001,0.9348142084511258
0.7641678063542292,-0.7033834263822946,0.9925227312517652
0.8479858645495812,-0.7763265626739227,0.9405599617743019
0.9341091165055279,-0.7555416428612625,0.9545075919366727
0.8396421322653106,-0.7937514417167945,0.8904496427437183
0.8892866308123475,-0.8475517752070753,0.740192439187344
1.0148901908502599,-0.858070190959791,0.6332452363175227
0.9478949179183384,-0.9605753309788589,0.5387353842206734
0.8525436889556353,-0.9374720241840531,0.2977915626833097
0.894219359641483,-0.9625864450659212,0.038951799254322995
0.8898649892382174,-0.982010296840465,-0.1294057609567003
0.8595698752904372,-1.1119352058956218,-0.2918433147781686
0.8396113388840383,-1.0171437542119037,-0.5856029072292277
0.6397949445966342,-1.0712386980144866,-0.6878052968448313
0.5965639931079619,-0.9930104919592545,-0.7829986085189575
0.5629117829477495,-1.037670134954844,-0.9453867165328963
0.4782462609306099,-0.8962568239230492,-0.9989285626324378
0.2521597766380149,-0.858857702307351,-0.9255266879955626
0.0867957045086718,-0.9038118012201297,-0.959181741720963
-0.10128988812528317,-0.8122447418750232,-0.9284644279177025
-0.1757628483807912,-0.7955831640880665,-0.7956725024536065
-0.27012796684594303,-0.6710413510534066,-0.6518258343306557
-0.2527592755032538,-0.6177913912170241,-0.505728656388236
-0.6182673782298267,-0.6331438874286711,-0.29840881311887285
-0.6306630701721095,-0.5805321059632366,-0.09137888695050025
-0.631635550217299,-0.43834160643376135,0.16801241891837893
-0.7643539565845135,-0.38924952201438845,0.2692335547116288
-0.8389674556952695,-0.35072265151380755,0.4709746542465703
-0.8539156018507809,-0.2887311327626182,0.6731246335425811
-0.9260369586066012,-0.1755764287198457,0.7886500522823718
-0.9507050815958817,0.05416258688407864,0.9240854119166207
-1.061536739393325,-0.052105349746393734,0.9871896806073364
-0.9861557675581005,0.05424029159312464,1.0630335357072953
-0.9913099218959481,0.08622193230549682,0.9945676168840519
-0.968379651476785,0.14625275267143933,0.8970251861767025
-0.9811560886736508,0.3111409844975936,0.8248270878551275
-0.893261082865371,0.3535970561238269,0.6324078421448032
-0.7565726793956918,0.40719625951551947,0.5138983072886772
-0.6360726699735723,0.5299147926586633,0.18770180765429023
-0.5362767525215532,0.522673525516234,0.07192601236325462
-0.5236550919683306,0.6474492468078218,-0.20869685189751835
-0.40182285264292483,0.6907145459465828,-0.3588303025662041
-0.30991660519677855,0.6895528646604204,-0.4532749199120098
-0.14287821298481912,0.853555247724667,-0.6658598394339698
-0.05566265415230083,0.8337838370372892,-0.7846600383436385
0.08838496288701038,0.930404900611897,-0.8945240106607125
0.23451053022046267,0.9847211718558522,-0.9866508610665613
0.3344441469437019,0.9666526523532983,-1.003147072209398
0.4978518425307129,0.9890452273508131,-0.9190434430068686
0.4986352837835706,0.9775916343709191,-0.8924085781186086
0.6455303369758328,1.027687601890927,-0.7933840901407012
0.7489088540344923,1.0398230397845982,-0.6607394233502136
0.7956088485724652,1.0085318456594243,-0.5459392590108971
0.8334073940719652,1.0437022182342552,-0.35916904386962767
0.9328660967102684,0.8978385616099198,-0.1132283919837588
0.9592723518427064,0.9793270650882204,0.059670609102888406
0.9892989663815575,0.9616598876246018,0.25087910611649455
0.951468581387079,0.8873649725830364,0.6568470654212415
1.0612608561639378,0.7600288803339359,0.6503357731210235
0.9112180474927734,0.8551435949602403,0.9009611924239915
0.8960392093538946,0.8411394445038474,0.8683226874376264
0.8339002072627568,0.7326223422412786,0.9657790671486829
0.7554375606728236,0.7278558020850305,0.9952535782174393
0.674532958721743,0.6345923735454441,0.9443918426390095
0.46512058834372544,0.5686057495695569,0.9230829551684998
0.4829819163323504,0.40814606925047286,0.8414698269861627
0.28627836862275435,0.3523433338837185,0.6336776610565843
0.2353486790641048,0.31283278443702334,0.4478689821986313
0.11120034488160219,0.27574861398468165,0.29231601842871946
0.014332021449103706,0.2184251720712613,0.048302767699718724
-0.1372925026409901,-0.015704896980853464,-0.1343502739258916
-0.24724495591037762,0.047751872427193934,-0.27953717462467514
-0.4155657343670811,-0.09759438409052834,-0.5550961033553663
-0.45953868557288535,-0.09798406106243845,-0.5719448683260135
-0.6240457018261965,-0.2603173658580579,-0.8095116357829759
-0.6455943362329999,-0.27429592404065134,-0.978237806252791
-0.7116846149432622,-0.27674052573870384,-1.0340376893555476
-0.8302774394547575,-0.3411950161538337,-0.9783196309840503
-0.8378154990562574,-0.462002667102146,-0.9213379559850569
-0.9569624069779871,-0.6011371958892987,-0.9463492171841571
-0.9854860675268421,-0.6530637807418315,-0.727532099470651
-1.0086351070671074,-0.6027773763009956,-0.6438174038805015
-1.0082503647729901,-0.6470094573417386,-0.572811189628682
-0.9964637761060569,-0.8217079816359645,-0.2726454241077161
-0.8734808469842965,-0.903021318274862,-0.04167040736576938
-0.83972738217886,-0.8626497920380224,0.14921995404599836
-0.802357732619421,-0.9071171116414997,0.3957828931645698
-0.7793858922955639,-0.9603589979650625,0.5729732609765926
-0.6376993270969074,-0.9201178991829266,0.7555634338987017
-0.5572168692264043,-0.9668702391433792,0.8820914772860573
-0.4674339060113646,-1.01928042680767,0.9798265509853221
-0.40077225224097507,-1.0556578315909175,0.9409798263620811
-0.25869053715748286,-1.0467801628582838,0.975952700762905
-0.11310362985627825,-0.9678706445881387,1.0248724166433705
-0.10810506802017751,-0.9555914518029102,0.9505481942479443
0.03522527483220367,-0.8977206611605499,0.7468068567513405
0.27363370561363903,-0.9273638405751797,0.6138148664102803
0.41338676277564435,-0.9106617107344284,0.4353090225793817
0.5290209181471093,-0.8382893227995828,0.3336150338844845
0.5956773651958117,-0.9789839713743868,0.06931156165215696
0.6969736769469328,-0.8036633968912825,-0.05293319938009562
0.7181128034983264,-0.6719029375972093,-0.2931293113310444
0.8916295788517962,-0.7228762075626082,-0.500701148763544
0.960480143438887,-0.5875194259797387,-0.6880645888106429
1.0072984969540881,-0.6209434056795411,-0.8376231718139494
0.9080838809476119,-0.5794812250933725,-0.8249525655831803
0.9095894498175969,-0.3356665538777861,-1.009139417165144
1.0321164292206093,-0.3544424655655045,-1.0306074235928973
0.9216073244898746,-0.1488836491393415,-0.9678235390783885
0.9276952267648286,-0.1968579450467129,-0.8951446244239507
0.9598096912906583,-0.08997106672669025,-0.8501241739747463
0.8859256240754774,0.03786728544729562,-0.6017933387414784
0.76397626229784,0.03141454610508603,-0.48985017631055855
0.7296640491282218,0.09793580398930501,-0.322062158167004
0.6033771619423958,0.30822836680748605,-0.10165060863147256
0.5387129849646022,0.32125098959696086,0.13513717917800586
0.4056707552752169,0.34467658818961217,0.4496878720832411
0.26212829082982686,0.39296924192783883,0.492048222842812
0.1390687979256018,0.5179859421301684,0.6962512996848973
-0.00913834623185582,0.5650461329500754,0.8667588120050881
-0.1577810518570982,0.6847143252372356,0.936725780795769
-0.27985786312364486,0.6576012409423146,1.0789964523205418
-0.3953784740008677,0.7609009827403469,0.919727079054813
-0.504784078613883,0.7413611797974512,1.0072643349468384
-0.5650537567339553,0.749843000060912,0.9457895937170793
-0.7477205902079752,0.9058070197212793,0.8201566418863843
-0.9054408627957,0.8628081478161638,0.6293409806078172
-0.9242261760630928,0.9561632391542847,0.428518888131123
-0.9207454041971088,0.9550156550626417,0.3753096606750034
-0.9273364389358503,0.9650882262975012,0.14333805252338033
-1.0474922303656393,1.052940664776554,-0.02749030976118265
-1.0585465488225962,0.9666799511548066,-0.36803225131863576
-0.9571197067773225,1.1097597777809645,-0.4363807955972368
-1.0561194299552394,0.9677819883912908,-0.5917789728848727
-0.9714496315709141,0.8910574086581862,-0.7534485590547796
-0.9919564381844825,0.8851182135741429,-0.9590470380294089
-0.8616264275882485,1.0104504396688503,-1.0281749495495218
-0.7022207802744977,0.9362940738052903,-1.053205700081585
-0.6610694087540517,0.7923834878993329,-0.8844668499385133
-0.5075343286456463,0.8429589824431158,-0.7942826828096448
-0.47295858981400685,0.7205746897666032,-0.7522549458599945
-0.37238335325805805,0.7907802393735838,-0.7417901990271091
-0.21858271716744954,0.602998588759183,-0.5037332901062669
-0.11136981142986582,0.6379077399926937,-0.3505545767485885
0.05056075675344598,0.6053641625218716,-0.10459085897815867
0.03647724213803785,0.475607205077343,0.09876308395241506
0.24394609154731944,0.3497216462740271,0.3206616377364088
0.3324747031685164,0.41170264146457947,0.5298028821009346
0.46303299993499697,0.265703530132123,0.6354505603549491
0.6128735833249668,0.20750005773261662,0.7881002642608977
0.7700546593502506,0.07088673617979085,0.941254140238803
0.7213149069049182,0.08598640889207675,0.9743089872174967
0.8751743791183332,-0.11199515359874547,1.0323827558829717
0.873875914143125,-0.08039807330004012,0.9390527210538235
0.9270408874748692,-0.13951033236869126,0.835834013047368
0.8858476658872064,-0.2679531680840038,0.8797591568505139
1.0094502706579318,-0.2813825534689583,0.6712113930902588
0.9488713408283601,-0.4003203569807391,0.560695453729949
1.0493109976993007,-0.4562040689507115,0.31503190201432396
0.8591007600876684,-0.5760651304678437,0.25171783010701
0.8474819481492167,-0.7083197498260951,-0.12771980056302693
0.814129516538659,-0.6683516409609728,-0.27874061870302763
0.7562583120098949,-0.7619324451599351,-0.47452490931728863
0.6782096145424479,-0.6962798075401304,-0.7852732265882363
0.6100953984721105,-0.7912761795218465,-0.8272436196441123
0.5914771313843717,-0.8837094759672396,-0.9482208986661943
0.327528046355662,-0.8663365364496504,-0.9225801645730186
0.19806240911005307,-0.9695839302592533,-1.049510437246756
0.1126684756739905,-1.0792682100984643,-0.9404295021361064
-0.017578717000900253,-0.992174878774176,-0.9695322949311976
-0.08156142581049777,-1.088710234834874,-0.7388845394167768
-0.23938385562070216,-1.0531061058674067,-0.7264902468365768
-0.4663074836459315,-0.9225752127630754,-0.46939495528637654
-0.4978823465347456,-0.9929808434405062,-0.3384698251911236
-0.5484387495045879,-0.9893393350144017,-0.14968216871114481
-0.5973244256363484,-0.9506555177070041,0.167712173172176
-0.7137767842256183,-0.9619214539478075,0.3340785030090727
-0.8082653190292511,-0.8686692115559012,0.48747266132863093
-0.8988646716867515,-0.9035374342475484,0.617634099149159
-1.0098095198584087,-0.8077079400918107,0.8574123738548382
-0.9682913041491538,-0.8071291429220491,0.8981294945093669
-1.0447952093563466,-0.7326500958643968,0.9282003063345018
-0.9196442501049742,-0.653631175285176,0.9636848150071694
-1.0054796603713425,-0.6628638630152817,1.04528879864311
-1.011365849915295,-0.539064255785146,0.9380052416529767
-0.8825603617760934,-0.4776135132161785,0.8245361758319462
-0.8793647377411263,-0.4143716945485612,0.645754990489816
-0.8513374392670017,-0.33412177953333005,0.5023175170340974
-0.6269729922897721,-0.1862544458193888,0.27808760919313225
-0.5551469786591979,-0.10285286188807466,0.012692407604733669
-0.541520887636312,-0.08676831712306607,-0.05340425096409769
-0.44787675049222364,-0.07684364653312845,-0.2884371837362162
-0.2977860570225581,0.09933603258685975,-0.5359817822903047
-0.12785712125021073,0.1691424274457585,-0.6685435406037615
-0.08562724718001724,0.20632109356925238,-0.818913040075193
0.20227444938137662,0.32886409960671015,-0.904371831832323
0.23526755571943728,0.26183000881223056,-1.025246948203863
0.422303250844077,0.48486742608573097,-1.009418062541437
0.40895755930320155,0.46615882125159647,-0.9936716930826331
0.6609518292145814,0.4952987744104268,-0.8708967567764729
0.6613794751802992,0.6356828957115876,-0.8475520029190251
0.8307351783772632,0.7357795847661854,-0.645985099446793
0.8996848488417339,0.8292282269099036,-0.5030003512717824
0.838006021776621,0.7192385554953464,-0.3040039972845997
0.9714472675970712,0.7671196571129306,-0.12390103674340651
0.9789452445476273,0.8627474064946119,0.09721360385568271
0.9334721970990826,0.8328923319247397,0.248210167331458
1.0874291520037112,0.9761226416899342,0.46539193968987713
0.9011485642776345,0.9146958154951244,0.6139834604224566
0.9455297508477929,0.9330803863367775,0.8435144048125557
0.8946510512988641,0.9754749822252694,0.8489942039885743
0.7698834979809033,0.9233824792049955,0.9164032343964186
0.8495802072023403,1.0520728839760536,0.9814998902017182
0.7156928731891844,0.9213275314617184,0.973810566025201
0.6232475298869335,0.9636741114477416,0.927413465466755
0.4987133916700831,1.0094373985235219,0.8769608804049726
0.3733195514055183,0.8705388610022203,0.6074658129825872
0.2155744121011935,0.9012493393527136,0.45334295708090255
0.09992902529488612,0.8589502231297232,0.2954877455870415
-0.12785758808660305,0.8996873713258104,0.0691917520038796
-0.06049042744168223,0.7530326298141733,-0.07882166538460493
-0.25363590187388096,0.7227314017194388,-0.3377588276239025
-0.3122869245781983,0.5710057522833678,-0.5078253517364673
-0.5525421788616065,0.6121344124895518,-0.6836646446852306
-0.6534692234328623,0.4461334624648704,-0.7976684889973752
-0.7005541713617033,0.39739037036679503,-0.9496503643027602
-0.7529595199189274,0.44342363878440505,-0.8371833092173211
-0.9250759056529755,0.22607415072450182,-0.8900128511515453
-0.8676946057661531,0.24427000678950875,-1.052004573128846
-0.911516289877496,0.22566293977766627,-0.9080842371345705
-1.0698113699231162,0.11600942025571369,-0.7808683238600488
-1.0429071998496673,0.019450490478644958,-0.6191499190346986
-0.9465408838305862,-0.1511778256659727,-0.5134340971726927
-0.9249791318819737,-0.06041744859079955,-0.23613249634638717
-0.9313335709841178,-0.21359176308568892,-0.06097033180221162
-0.8427170744493636,-0.19241743351606633,0.15437534540901648
-0.8160534147203177,-0.32132900755747185,0.26657349001293146
-0.7783167729574807,-0.4509940612076753,0.4957782804632737
-0.6341328970964357,-0.4929396947482723,0.70061847447229
-0.6431605825887112,-0.5810014351640023,0.832388978201478
-0.46272482058193964,-0.6294878220398806,0.897498731244729
-0.414273306361144,-0.5954479717053287,0.9649798092031078
-0.23861358695111543,-0.7364299439108334,1.0039802943715688
-0.05732807877545602,-0.697857128921152,0.9776252641870306
-0.011417510905482962,-0.8095881392063191,0.8562971394859545
0.10774748911135433,-0.8145868943931509,0.8386541288769601
0.23476150921663436,-0.8792570402871724,0.6488145509776391
0.2768808379366768,-0.8966244314260079,0.47103802930228067
0.5442837704673812,-0.9064945596613246,0.24970709178960762
0.4901938405111694,-0.99309973961229,0.04000060209960208
0.6758292900930779,-1.0251590466266498,-0.14602895902814478
0.7695934919557008,-1.0544933439385342,-0.33328541597584166
0.8298948728136621,-0.9722812611365762,-0.44056030997887075
0.8522456035676165,-1.056801739850267,-0.6986360202636583
0.9039237512953064,-0.8897983090109128,-0.8221506660856511
0.9596109641675513,-0.9623884793199553,-0.8725847461314615
0.9466739679458703,-0.9349800969066918,-1.0457595316437662
1.0143075996182591,-0.9155384479071935,-1.013473961081171
0.9793908124348504,-0.8393019641295532,-0.8544444285145308
0.8822242619034021,-0.8527214788383841,-0.8261735533963952
0.8884181599558237,-0.718930531855098,-0.8007369030369684
0.8538664792103287,-0.6790551398278214,-0.6358737026807642
0.7592946370111044,-0.7101056678606921,-0.41814467288509627
0.7227698629355384,-0.5354545554285242,-0.3436941301657167
0.5639582247435507,-0.5704335924341146,-0.10922339701080201
0.5365776016270907,-0.4738948915916486,0.15984957697114816
0.31650963234241214,-0.36520112546588757,0.35408854902759757
0.2208481556493008,-0.25104933567660015,0.5304963572893957
0.10304628238450347,-0.23544176441318918,0.6785507796448652
0.03645125258200907,-0.18198989702028381,0.8010020596561308
-0.16524480649512724,-0.11392453646871314,0.896628095870381
-0.285340296089117,0.06318705241993089,1.01622343419115
-0.3983883168595787,0.042277910775803305,0.8934868464934755
-0.5288794234238435,0.09797426073511664,1.0109405184430118
-0.6788347596127905,0.20546574760968472,0.9238293488210411
-0.6984453323192492,0.30922698008745175,0.8042161386501053
-0.8336784310103652,0.37612369323501355,0.6133856265034884
-0.8751519038876729,0.5055046007342009,0.44588540642740443
-0.8898190431549814,0.5651136911523192,0.2628020047158698
-0.960152063152151,0.5194708080464179,0.16774212870916153
-0.9910244610202082,0.624609580840683,-0.12954384743396566
-0.9879663962053545,0.7063403234385385,-0.34988134595136605
-0.9693209356200274,0.7410231307323105,-0.5700978606708939
-0.9188256445593562,0.8090710363843847,-0.6810948635339782
-0.9816166361189627,0.7863073276776155,-0.8900105137742499
-0.9050811219174336,0.9361872713128022,-0.9484885990580875
-0.8800635963805269,0.8892950127675965,-0.9446345384535781
-0.8149587244531312,0.9217880599944613,-1.0519435836526607
-0.7299274516256984,0.9680409927731137,-0.9888627956913053
-0.5712364832439137,0.9960793704082833,-0.9625250411371863
-0.46224547099924196,1.0400706531452626,-0.7872483703334946
-0.36861088933921876,1.0343405805059673,-0.7033239820417323
-0.27547268597264307,1.0356813829872762,-0.5396635130019845
-0.17832192333347774,0.9199026923580814,-0.3536056187141179
-0.06856046179514394,0.9802300540297633,-0.09968621173043804
0.17272490052001702,0.8408386258497188,0.16646605412673088
0.2558778614593048,0.8457271246106539,0.2907422937377571
0.3165220245195488,0.9515320389106517,0.4272855093049276
0.40349136870955793,0.8844198778384049,0.7026735116021111
0.5907462209306851,0.9384409045745027,0.8117505779252285
0.7444383654597867,0.6340621723084363,0.9375379667120776
0.8549930122071981,0.6840759072089327,0.8827158258907203
0.7926389436339543,0.7083058738014057,1.0749055348979784
0.9003163007213771,0.5969779965078964,0.9840742818628287
0.919730734221206,0.5536419678981409,0.7299342183417566
1.0278431419939849,0.4543277932249555,0.8261066529650821
1.043448957074997,0.4769073415550165,0.6881348594485315
0.9955443696424443,0.2541961250860357,0.5276901471819754
0.9331646064080762,0.2839906949332535,0.2780073424326966
0.9789793752233193,0.13558035511312347,0.0209258101807321
0.8996218343486029,0.08828394555299256,-0.10496005977064247
0.8945520009353989,-0.016195787799539386,-0.23901250919097422
0.7625501575886244,-0.13525113402806052,-0.41143570382284206
0.7635343418776291,-0.12203009022732267,-0.5965302045795455
0.5044489772821901,-0.20844453371299929,-0.8918994918859776
0.4870479135011317,-0.29492365570623275,-0.9392101051763447
0.35939624149715893,-0.2860731667412913,-0.9349249820373405
0.26712692653304576,-0.4549256266121268,-0.9499402384883282
0.0071838515497577304,-0.543941148472591,-0.9544482261722897
-0.083648212882292,-0.6110394146179499,-0.9298701739616823
-0.0929744104072979,-0.6250203491367152,-0.7474497403572554
-0.21119997480494823,-0.6786535352150255,-0.5894364756284558
-0.33540305157544886,-0.6705337838726071,-0.5226784964470339
-0.4171975405310815,-0.7205514187517083,-0.26507388574745433
-0.6525306314423133,-0.8520729799801054,-0.12932826010948623
-0.7214949274498735,-0.9619352406143726,0.07295515069203884
-0.6869494803638123,-0.952276839480709,0.29550555400857287
-0.7840134543203107,-0.9528843795088021,0.5012108618692128
-0.8889688588300868,-0.9974674895887798,0.6444021874012205
-0.8694196934270163,-0.96189071482441,0.747774690811022
-0.8975894204837113,-0.9476259071266288,0.8908811299026205
-0.9937595658205295,-1.059139359981186,1.0070489419058013
-1.0201504814049807,-0.9915985522470396,0.9448966152541348
-0.9501916848290672,-1.0100250031205709,1.0119690455869952
-0.9731622099085963,-1.0378468485421435,0.8691009177469953
-0.868383203746142,-1.0661474127075516,0.8868538363379047
-0.9098998213356431,-0.960647679159401,0.7918298517221941
-0.8505183461164445,-0.813390077332413,0.47295118098018796
-0.6117397661096304,-0.9091545395809866,0.2556518839874775
-0.6102281038177304,-0.8722334184218073,0.06405765133671873
-0.48200060720713633,-0.7953004703134958,-0.07734463404253611
-0.3641100124144639,-0.8085369241589331,-0.33653496046876064
-0.30746747800562796,-0.6584012283450409,-0.5850087957021838
-0.12859339421633498,-0.6644200498135064,-0.5962993845448733
-0.053102212470020636,-0.5002883679592286,-0.8297972566272793
0.15022510479723789,-0.4124704835414289,-0.9163085433557795
0.27700937712716556,-0.381824857127357,-0.9555678181222171
0.33310062930110634,-0.4151982741204865,-1.0200980424335997
0.4655757783320193,-0.2538711830219512,-0.9912132613475707
0.5848466878738522,-0.22358381061342478,-0.9138280190985192
0.6125632478873267,-0.12670249577292447,-0.845666852252908
0.8861902522005611,-0.017666681668616027,-0.7098812042911633
0.7580827354139477,0.09433963499767814,-0.4642409872352942
0.9092703933474663,0.07251788161509944,-0.3295309598616081
1.0666735604967315,0.2271511696979018,-0.10819929974157733
0.9648141690562845,0.24506298309815286,0.08561146606381151
1.074357896796988,0.4805503399299115,0.2469168222356149
1.0045313258467417,0.455732642409122,0.47573136777479746
0.9370102200807756,0.5242693800995358,0.6875243617162905
0.9423952757214926,0.6324472088839458,0.7286562802745763
0.8390403025526599,0.5873619136692974,0.921404295226729
0.8601737939255963,0.5992841535418308,0.9889426734318983
0.7819011803836485,0.769221698055939,0.9929067374091801
0.7045258690733968,0.7809818585080455,0.9520352010492522
0.6057074726706662,0.7658748830894548,0.8954710644502375
0.4145373617575743,0.8939576868985634,0.9142296335088543
0.41155148434270006,0.8798153592910402,0.6653013046032218
0.17908532453540094,0.8979562744500921,0.4699994588366836
0.16088383123244882,1.0178080609582694,0.3499343190133006
-0.03057236727876471,0.9538831050903375,0.1309530328344329
-0.18205554990171208,0.981418008394644,-0.11479497581975835
-0.24493835242342368,0.9590822249926468,-0.20901394223160238
-0.32958135459477894,1.0300855088508398,-0.5504986052916149
-0.540308893670353,1.0476785729995426,-0.6631586159037559
-0.5608838459521683,0.9910025053394343,-0.8045947250152198
-0.770662872592123,0.9839385497126141,-0.886209972140172
-0.7527654227899354,0.9366016295582539,-0.9837982196155228
-0.8896620813534093,0.9400557055327842,-0.9379927495813042
-0.9161388397080674,0.8960251003459347,-0.9114270780365382
-0.8891454019233777,0.8239076489827232,-0.934583055235507
-0.931874529849101,0.7530193968056509,-0.7320462396201894
-0.9582128753025387,0.6676578707107966,-0.7152217004815651
-0.989770261249471,0.5970005498102673,-0.5347878188003716
-0.9407934264304146,0.7435885109968016,-0.25635090835039626
-0.9105683260621569,0.4775689603109095,-0.145721806844262
-0.8105993562398955,0.48370499859123106,0.09821077517869546
-0.7867402715061763,0.3998060738486523,0.3751095356687501
-0.7882703246735789,0.2441777398213768,0.5616093820033397
-0.6971808650104777,0.2673622940017615,0.700691642859359
-0.6124663161193152,0.09052872896136739,0.8659998955023152
-0.4530964213662486,0.14646288736622892,0.9479625664384969
-0.42981683594133746,-0.016495029153310845,0.9485274947941008
-0.2234771337659675,-0.10336423178806484,1.0157800695490244
-0.16985549141603212,-0.1346845412517358,1.0651569442979802
-0.03560011197525761,-0.3295007061180564,1.0005738280907832
0.20249504000617247,-0.3308643350015702,0.7629577271693555
0.28946573256638863,-0.43167518705327784,0.6760871278993702
0.3378028262621129,-0.4716482796665543,0.4458072761536179
0.44158204019220887,-0.5428778372938439,0.31053146186209263
0.6213394358904464,-0.5918454687822465,0.14285354188926486
0.7159899326640227,-0.5963855134870876,-0.1357079098423548
0.8649383936084586,-0.6636890704404912,-0.36044861223029784
0.7787903740724408,-0.7696334677738302,-0.5115890015280458
1.0211578087806732,-0.8134267734611065,-0.671348744360497
0.9164120644386969,-0.8213778686582359,-0.9125779461028269
0.8826480212430718,-0.8747303947622688,-0.9791557847332202
1.0281658767615611,-0.8112374547580706,-1.010075248400426
1.0119084752023875,-0.9981132506744574,-1.0173291455310918
0.9164087248975092,-1.010441606858759,-0.87672136596582
0.9864118429884537,-0.9479436204958607,-0.965284233907497
0.9462077009213996,-1.1002035250533733,-0.8593594450009467
0.7305057224313473,-1.0183647127358098,-0.6813977277088411
0.82004001157991,-1.035124764590085,-0.5166200701640709
0.5186963386811089,-1.0151404618057083,-0.27225200676768696
0.5968595089974674,-0.9576994959291478,-0.09815254117453377
0.4562485172649968,-0.9515889834216329,0.06754074197170712
0.41269693507737404,-0.9602919135015545,0.35124024226160216
0.19846452229995712,-0.8470688533541015,0.4774301976884959
0.11978017540646643,-0.8301445626923849,0.6871633836092395
-0.0031202577909365866,-0.8628253541458208,0.7862078513537752
-0.19738225128443898,-0.7565012637543261,0.8642882414303691
-0.19593849064381147,-0.7070247610820115,0.9176488732458915
-0.3520249275797813,-0.6947947979289453,1.0146148040060898
-0.4606857493251927,-0.6434175065044507,0.9690355213271996
-0.6206869484983107,-0.5710239311674694,0.9636953888649662
-0.7144952931979888,-0.4076169373765537,0.8426069708075042
-0.741920034481447,-0.44624363769370007,0.6724404276755562
-0.8347412868274147,-0.33450399279017756,0.46581752338942284
-1.0358917389039113,-0.2952178924245988,0.2322584922466417
-0.9667881837408272,-0.25106612290180175,0.10358043432519938
-0.9362749820030085,-0.010697342605490615,-0.14044459381582147
-0.9828832938203891,-0.06611486036163049,-0.2931950046889897
-1.0287375129029162,0.09882836236149607,-0.5280458681095825
-1.0979636107417075,0.26076976397206886,-0.760516010888595
-0.9392672431559589,0.29130544067294517,-0.8744195091080417
-0.8769289793683617,0.3016950751914244,-1.0044572781583947
-0.8749360888319492,0.41049104845749884,-0.9826617289649846
-0.757305618610821,0.45869434506990947,-0.9441302619990675
-0.6251347033506396,0.4865911208617037,-0.9292696808746257
-0.6141441384203971,0.5750938312009203,-0.8950162020645976
-0.47260529230448434,0.6503146916711642,-0.8243435725949453
-0.3837523081292734,0.6650846030510481,-0.6446935838202947
-0.25326537702696866,0.7447737072513183,-0.530878621907906
-0.16314244132718286,0.7579072946266372,-0.35001144754754976
-0.07428715481524108,0.8115526176276502,-0.11399481145530244
0.1729317203032601,0.936231140061927,0.16753772794122437
0.24501226284999897,0.9157579941995769,0.4152904403271657
0.4106829799144348,0.9770373567483236,0.4738380651112315
0.5213947645882488,1.0306510688848336,0.6715940293422006
0.6296165852796028,1.1048759843494222,0.8430907945188186
0.6336357955450898,0.9483017108806292,0.8950625228487469
0.8467993941328141,0.9972412401228294,0.9076840301235132
0.8347781470721165,1.0802681079072638,0.9971193722224607
0.990338893650991,1.014638120285613,0.9843879016753567
0.9199649403236222,0.9939609928316125,0.8208653636302802
0.9671560111936139,0.9532282664552135,0.7825465771989436
0.9781463999642093,0.8877929636328403,0.7225484563264734
0.9645424548313115,0.8974796190837238,0.4119863176391071
1.0046578923161404,0.9005637905910495,0.39219173231254917
0.9233796945709288,0.8964787213242422,0.1483267638153316
0.9415503703417761,0.6867681529323744,-0.05489589911309384
0.8446702019826002,0.7252263709041314,-0.4298065659582979
0.6740775060739576,0.6321889438927785,-0.43350238413461556
0.6855050484032692,0.5657236677903776,-0.6016494582371532
0.6059892093985749,0.5546205777834726,-0.882798148674495
0.4208121572973669,0.5053816093328138,-0.9149841524489898
0.4670888910227423,0.40646276883184457,-0.9401888217992002
0.20970856330656912,0.3567228753331722,-0.940860433371743
0.19986702496379383,0.2714753699178646,-1.0227284482192085
0.05719107300013104,0.21253488716425264,-0.9778887071486526
-0.09570254667205551,0.07921985824308708,-0.7933702132149948
-0.2712445555163838,-0.02392510414704917,-0.6363865562872236
-0.3930508707680059,-0.07128104671439348,-0.4660269650693975
-0.4613982012496643,-0.12794078259855596,-0.23771708957373272
-0.5330163819389374,-0.2111014532929233,-0.027683819465996115
-0.6143706672750135,-0.3208152509893964,0.12658861415198286
-0.706813121656002,-0.36662384238906914,0.3908600778139907
-0.8474932104471037,-0.47011017805028227,0.510233152372626
-0.9168330205949609,-0.3995450419838925,0.6624594268776712
-0.9482432634494631,-0.6349028347432986,0.8174595686795498
-0.9457270018300226,-0.572408038808358,1.0273983571082075
-1.0761319660619326,-0.7365669666508177,0.87357886039611
-0.9184645390837609,-0.6876249787485667,0.9854281837543024
-0.9292405820189731,-0.8268706092294219,1.011664326022267
-1.0019249610124588,-0.8232081495148738,0.8704585398992593
-0.8641789000028586,-0.8982276926878355,0.856080854707668
-0.9469821766971569,-0.8686561241280347,0.6814916846690503
-0.7582602820048336,-0.9276764360881795,0.5456906038367564
-0.6717134091670931,-1.0586589304472502,0.2720090824340359
-0.5514271519453086,-0.9893051579011612,0.0628882354082475
-0.47067001707055267,-1.0067468012206386,-0.10093343821730442
-0.32181505765471824,-0.9974073157843035,-0.32567458732900845
-0.23162226460088153,-0.9806898930398629,-0.5183527545589997
-0.14549763476938365,-0.8978171090257254,-0.6982936625009082
-0.04481634860239703,-0.9750659545936686,-0.7459260387192119
0.09597836286590898,-0.978986758187283,-0.9161812269908965
0.23013915291592243,-0.9246990824209111,-1.0281655474258482
0.373118289026233,-0.9051900937689591,-1.0341467954645087
0.5646777623478453,-0.8436414292388186,-0.9904935325839632
0.5368793451246221,-0.7667469830343855,-0.9426635540002347
0.7199764928646022,-0.7166965387422639,-0.8225710665930941
0.78802863563958,-0.7320858464969318,-0.5784247594043704
0.734253714500189,-0.7421156117247811,-0.4791620721108079
0.8199280009139556,-0.6775799256978526,-0.3344053697952229
0.8918014906078262,-0.5594126064215101,-0.07171538395713194
0.9866296833709544,-0.3948633731837057,0.020122745575775938
0.9909113345124391,-0.42150091835470593,0.29681562009739226
0.9507082077516076,-0.3317813695763201,0.4808533683938228
0.9487363547091953,-0.16255397830640672,0.7438912689883828
1.003170514502907,-0.1490187729795139,0.8484562639075429
0.8024596713608849,-0.027751638948906546,1.0118862131339936
0.8720741801524879,-0.028934385078190135,0.9950370095742863
0.839209912032939,0.011021319828781267,1.0446655212580152
0.7315401205878773,0.13181175013022928,0.9605752322136878
0.5940688075717095,0.17979572808972663,0.8731575584768969
0.46043804035828106,0.2520187137616289,0.8451281941260139
0.4101420302916098,0.337830787057815,0.6832253920520519
0.23682477168717034,0.4517628633209008,0.48257970110857396
0.15086245792476904,0.45343119606031357,0.316492355444603
0.027109091221040157,0.583652960694266,0.11689557434019962
-0.16374701149960702,0.6170355488994167,-0.13518729762974807
-0.32665500097461764,0.6556769799205748,-0.2839658376959707
-0.3729130786715297,0.8362700628837396,-0.49578569162099717
-0.5571594997984933,0.7183394376640239,-0.689675743945165
-0.5249986447016477,0.7986437655761236,-0.8364285913423594
-0.6665432558928385,0.9984621200991959,-0.9203062886469981
-0.6576175869188079,0.9332838346143162,-1.008321220580429
-0.8351807157422524,1.0210449734388907,-0.9620584563025473
-1.0287554070110294,0.9552841912948772,-0.9989951561457945
-0.9034663705570648,0.9710427280657667,-0.8657990409289574
-0.9192805241463731,1.013941497923176,-0.7190124459322949
-1.007923191927627,1.0259175685402109,-0.6191756249554133
-1.0392565206019095,1.0170694887034777,-0.49917702304745354
-1.0572174680856756,0.928147323738164,-0.22551502240481486
-0.999987521686064,1.0367540366447878,-0.15796916144229706
-0.8643769305605503,0.9097678049487538,0.1789406111163847
-0.8233660517845168,0.8894284873111209,0.2528483724296323
-0.8802322563841565,0.9231338399184761,0.4625308882558668
-0.6694596776586554,0.9252908849609464,0.7500028906538845
-0.6314829160572687,0.9017056731749409,0.8102706876893195
-0.4788074060204013,0.7007379496048665,0.8952641716768822
-0.3814619880171686,0.6942635157759408,0.9317586743648446
-0.22781846283023732,0.6650988890989121,0.9912712056587644
-0.06159351578586526,0.6692773003557735,0.945905122311492
0.029831648262815567,0.5169452738462048,0.8879816727842045
0.0705579379563871,0.5377114900471266,0.8478259531777865
0.22838751769194893,0.46325966175543476,0.653339275142384
0.38541920664216284,0.28651479850776357,0.49913123558122996
0.5204761522539156,0.2985240420487962,0.34355480940534217
0.6115009254907717,0.15585725415594515,0.13927057064455
0.7371591873301258,0.157158295166364,-0.12678496683403298
0.833192466929704,-0.022239215229726005,-0.323852364132873
0.8033487654146444,-0.02690051470893771,-0.5669268308938482
0.8161116218255876,-0.16165470377408464,-0.6606353311972077
0.9735269145258053,-0.09688983665926498,-0.8537460349380614
0.9765316339213895,-0.3273657670652314,-0.9114214718578402
0.9407597780587926,-0.3538522679406692,-0.9671810500536724
1.0352390417839807,-0.3996869426299032,-0.936331098029526
1.012774077308215,-0.44118229036423456,-0.9605854653748698
0.804197748384341,-0.6128118960823062,-0.9055219607069678
0.9764021063312508,-0.6483387059287197,-0.7099742944424883
0.9206208725639443,-0.7156776701555005,-0.642804078978253
0.827975877817666,-0.8169157299617774,-0.4604883533757599
0.6651712915328614,-0.7726357538067646,-0.3906936240757277
0.6448545462973649,-0.8266819840009358,-0.11085729161474765
0.5520056303207128,-0.8978397272915459,0.11638254200869617
0.3181894061811006,-0.9507869503523158,0.3408059123533445
0.23044211036793683,-0.9442379850325807,0.5305765314731673
0.1075014228637753,-0.9502118183246387,0.6746062854809907
0.0228786134998066,-0.9729029946265149,0.7868649249069075
-0.07012720531118541,-0.9566846037346558,0.9203533994651505
-0.16172394972833698,-0.9931117058828491,0.9888119059482217
-0.40185905016165296,-1.0859276937012217,0.9479586032708852
-0.4936782921556007,-0.9709105374198977,1.0305913531117006
-0.6477717473226623,-0.8989534228094136,0.8609915558452087
-0.7703157979352047,-0.936605345498677,0.8180603107012288
-0.7848505152997318,-1.027594455408296,0.6519721196011782
-0.8036612986759661,-1.020163682356662,0.39531198410652346
-0.8731315071069731,-0.7933286105570466,0.30187896305219253
-0.8980282406758952,-0.8329418334463271,0.1215034966257668
-0.8971908863977717,-0.796587680175648,-0.08194776781565098
-0.9721601356385278,-0.8234066318553657,-0.2993338152639146
-1.0880830869987452,-0.6992563798238097,-0.5628987411972421
-1.030493300859396,-0.6025196259248745,-0.764283393323918
-0.9395427264150911,-0.5226421168946901,-0.8445110999715387
-0.8876591376503921,-0.5399411962333983,-0.8855565113943429
-0.8550502858604865,-0.33600996870077504,-0.96051114903214
-0.8067405916132908,-0.30780629813228544,-0.9487713076114306
-0.7419813108174838,-0.27782530441927045,-0.9708864595898187
-0.5919616856374484,-0.2619485699323647,-0.9263042967275045
-0.5127530175078564,-0.14425940843574386,-0.7662285961005441
-0.450888498483591,0.003137046650746194,-0.5741735472428579
-0.17673184151761467,0.06506616103835432,-0.45001399251158625
-0.1599411072884051,0.0837462811633242,-0.2682409151884739
-0.060447078770200675,0.16536980084525013,-0.09816562731453893
0.16968525751434757,0.27656158601677694,0.19931443088614414
0.192711402366444,0.32103594596159274,0.33052992537414827
0.31309142163541975,0.4421234634053026,0.5756192839675788
0.4938008719136743,0.5381759184025824,0.7276018208977706
0.6172658513947339,0.5947428503137111,0.8370468911558967
0.6765355135863231,0.6830784015346562,0.8708828384134724
0.8145737957593141,0.6490050210420512,1.0177582854134029
0.8259104059254658,0.7814215499180488,0.9652023595511354
0.8985978012393505,0.8084968786465421,1.1039876286223176
0.9640455584077843,0.7198698825231754,0.8958020813570907
1.008245792001582,0.8864753939865261,0.8212089925333595
0.9535937212569998,0.8552270621185654,0.6399564035772269
0.9731609301741561,0.8846395304899011,0.5184766324585344
0.9242904639225208,1.0132888847272254,0.306886972338957
0.8533325498920183,0.9896292893811333,0.09110803590806772
0.8444617881622332,1.0405594518671126,-0.15973417581058486
0.7724881639916157,1.0196989336844746,-0.38237333923477435
0.7077192829707055,0.9455059817452978,-0.4675828993242479
0.7426079380326371,0.9943235938557395,-0.64412160519949
0.5816810109008911,1.0122520912579767,-0.7213163595697012
0.4771829420211184,1.034441400364353,-0.9403570169151135
0.3757842520841709,0.9910785041177446,-1.0133508821884614
0.27444128686627445,0.8765397528087353,-0.9826722668617054
0.12430591635521858,1.0111526464796408,-1.0170574542781823
0.02878543898337168,0.8095022292747307,-0.9113696783925902
-0.07426764221819138,0.8030288808737229,-0.8655602903678311
-0.09025032365172322,0.7207480249162732,-0.6271606759274483
-0.4656563240395088,0.6668343997708711,-0.5306962678787349
-0.45606648038775616,0.6358770956739239,-0.27677525626016586
-0.5536901858117893,0.4995890738056562,-0.05482291083149366
-0.7486631383754655,0.4863856228001107,0.13116601847165132
-0.7871756111916127,0.42401777267333524,0.26337271222074143
-0.8951908227191697,0.29534198757821173,0.4748266633446683
-0.8794238061511981,0.2948091097587323,0.626808711398387
-0.8070721717249637,0.1707918620812912,0.8827371877338358
-0.822047862339484,0.0588957208340393,0.8481893175562527
-1.0331783143806896,0.10718492796159065,0.8994619478966769
-1.0534836302852064,-0.10538328263181981,0.9305414520471894
-0.9779153661980183,-0.08581303276323743,1.0325886308957222
-0.9211358258468725,-0.1779068969480593,0.892137184074293
-0.9826499359619767,-0.3008456055757551,0.7319839154188428
-0.8436377788698539,-0.37614413346066694,0.6427639021790778
-0.7223450051070835,-0.36153563194310706,0.4958881057634324
-0.7017096430917243,-0.541165171587957,0.3210170159132665
-0.6143535637813039,-0.5308229023166035,0.09243702559988219
-0.43919726021855426,-0.6490678882066783,-0.17836880999305474
-0.38996767379525094,-0.708138335335816,-0.36332149878381137
-0.27396607275920315,-0.8162739865185472,-0.5083944861134041
-0.1442482814543141,-0.8265881472719676,-0.6114570442308924
