accel_x,accel_y,accel_z
0.03615879262304313,0.9087200288684276,0.8885551508520032
0.10812759756119915,0.8719122472854772,0.7722465029314652
0.2417307217139275,0.8876381536069576,0.7366572619144127
0.3696788341791301,0.9163721348125742,0.533687298472022
0.45227622098461817,0.9228792543629789,0.32665041631584774
0.590121522093568,0.996221784458905,0.08645606771118049
0.6983992912682443,0.9981408588591756,-0.08873727623707936
0.7254571240044689,1.0310221054445332,-0.3248902819072319
0.917849997342441,1.033884736793718,-0.3630650428851164
0.8662271074270244,1.0116832411590229,-0.7162797824398184
1.0248964665502747,1.0728897694274453,-0.7275588778994383
0.949616929150576,0.96406397292331,-0.9136205663760889
0.9753731118691976,0.8443805316270377,-1.000047747912194
0.998142454072025,0.8612231740506073,-1.0181484657667113
0.8944622265538404,0.8652427576912377,-0.9062635519821328
0.9395774712102456,0.8536502809259499,-0.9374375558896716
0.954508870950783,0.7760075930030105,-0.7924193231119059
0.9109350938662234,0.6958214839386706,-0.6475473829913075
0.7153643453844151,0.7872986550905143,-0.5073172331796436
0.7836263129850582,0.6749457066706425,-0.31489760009835627
0.6775475151161813,0.5449462302447071,-0.17049302283308365
0.45437382542106625,0.45249707266897754,0.022428028359204807
0.3637613524171271,0.3752324193018951,0.3818884057976449
0.247314544012697,0.4213540960440057,0.5249251526917211
0.19503200724626257,0.23982626488038394,0.553131951644099
0.0018490444530713081,0.09509873072911823,0.8106378551362684
-0.05641276070689416,0.12307067711652012,0.8928610989198409
-0.23198529899763629,-0.030669654330062756,0.923723255994415
-0.31077448449987455,-0.12220389436661591,0.9828772712081951
-0.49462733869356423,-0.12380197287045021,0.9996553746674642
-0.6678960648834137,-0.24235699783570458,0.9304707590019454
-0.7235258757032762,-0.21709904755893544,0.8488555439938483
-0.7552557740001286,-0.3146923205127311,0.6619730830482871
-0.7991012895404056,-0.4721847985298618,0.5397387270061463
-0.9364778947877237,-0.5300054256983503,0.34420719859205406
-0.9327803336233766,-0.5719407346609713,0.051396701042190275
-1.0256874261190971,-0.6638386015113943,-0.14063315087007938
-0.9979557736414995,-0.7186790518290669,-0.2999704409760356
-0.9767870640872598,-0.6668317410780356,-0.5935788786301587
-0.9392307987301265,-0.8674879037161146,-0.6507287709808992
-0.9486578085587105,-0.8529114680698551,-0.864713693129318
-0.8992837311465512,-0.8859753580477369,-0.9155908283706558
-0.7911336248106376,-0.9372544668464305,-0.889028762907593
-0.8540524213276833,-1.010059240516841,-0.9856932235218019
-0.7365498474281913,-1.0117336306113134,-0.9748136136525661
-0.70019367495515,-0.9675394781167493,-0.9270197729531522
-0.5165238244864387,-1.0074079160611684,-0.7756138358947815
-0.3631716398506978,-1.0522799081550356,-0.6183036283707299
-0.24056870586117243,-1.0165239304695222,-0.5303779290532115
-0.06911167273617841,-0.9003250112929575,-0.3364824655101994
-0.04928789695192379,-0.9483162188813299,-0.07935246116823966
0.15379021955285568,-0.9386866576204197,0.18863443524227286
0.27631405608260096,-0.8970609602364407,0.27250856816498564
0.369123630435777,-0.8991033784814011,0.48460700897626485
0.5559248428050124,-0.8446372174540973,0.6807437304796385
0.5965037732630812,-0.760812776075159,0.8324376947676252
0.6109610214103915,-0.7318483975332016,0.8352883238542888
0.7416886572085858,-0.6350222702012409,0.9720624980506202
0.775860710846317,-0.6128707084386779,1.0033548436993713
0.9087650391270838,-0.6119069389046752,1.0601926393028052
0.9058570749633172,-0.5299176227768678,0.8356751637322332
0.9539878381081087,-0.46407779611526995,0.8280871329664237
0.9886715859535481,-0.40705226602316713,0.6165768267718872
0.9670908149895121,-0.3462860515673531,0.5150194912538048
0.9559342350108776,-0.2982774740395731,0.3152455568411658
0.9537537689237358,-0.20302950676339473,0.1517308467981887
0.9096913209432163,-0.056269902798239464,-0.016065570329497736
0.8956075284580013,-0.023012493213458607,-0.33554281106488115
0.821080295802275,0.05498285215486736,-0.5821217134590259
0.5971123695762883,0.16143476296946224,-0.6676362604167967
0.6832151819704474,0.1341600691106811,-0.9417639992099235
0.5176570486613193,0.19438041207952,-0.9302023499791063
0.38119691504265035,0.3492483522737556,-1.0204706713212077
0.2714349411456967,0.45401350926540807,-1.0289431393311261
0.1098982098292791,0.38425687868289293,-0.9574893887865777
0.09883465661131063,0.5361434257268705,-0.9410181161589128
-0.13787252640342373,0.6934122971664384,-0.8050886337572416
-0.19016030020258815,0.6727300467548223,-0.6043716844225604
-0.3550531366734536,0.7329771436117911,-0.5247800269009243
-0.4569255115505432,0.7594619339191166,-0.3649383045159971
-0.5673195379270055,0.8181655767546729,-0.13619830028983834
-0.6780240368162318,0.9376640260919413,0.1360152080890337
-0.7274951454935927,0.9680980280689258,0.2872658725241915
-0.9665173012346961,0.9655622842211922,0.5067572437670507
-0.9482878430110293,1.0438425658478967,0.6150442932005886
-0.9476407990824834,0.9878854445235812,0.8206877851724168
-0.9696743272765614,1.0096816105335304,0.9391845951829599
-0.981893962890768,1.05311877707124,1.0811089361057433
-1.0080403993774767,1.0204534551512807,0.8895643113632439
-0.9665229618418888,0.9388870106086479,0.9995529757250394
-0.9761628323277515,1.0615607066738468,0.8729098131554021
-0.8461877158984041,0.9549486997216664,0.8565395892669558
-0.8128555402666507,0.9105123275463403,0.7253668252966502
-0.7800713112360875,0.8885359614844953,0.5057361464824027
-0.6976944057651955,0.8933842997473559,0.2808195502534923
-0.6699674844575827,0.7676726237521758,0.08190958362152218
-0.5454690928338723,0.7619682881241691,-0.13190530237743409
-0.35380819763397636,0.7023364613798673,-0.41419852148921116
-0.33371230710390354,0.7015788589506119,-0.4262380187777715
-0.14812024396637016,0.5815737691727013,-0.6534334955321706
-0.06283910242583353,0.48320446709966114,-0.8706123109371139
0.16873559694650966,0.45934545464713405,-0.9597002715445532
0.21001389882621077,0.4590297497029334,-1.0236141719050567
0.4145273675840216,0.37591643472264813,-0.9817009776733652
0.5562397813909485,0.30627822499011026,-1.0082255409219865
0.6000784377641561,0.18032139379601697,-0.9728530853920114
0.7226929419522152,0.07352939788014962,-0.7816282232808862
0.8128012395290852,0.08707955623526072,-0.6738540160129558
0.7737061170573285,-0.031577966298360266,-0.3613012688275754
0.9771485348264266,-0.18207320079105901,-0.26403184005475155
0.8988961049578966,-0.20641586521918093,-0.11371998596519986
1.0484627793034986,-0.2783251241764152,0.12254606094387951
1.0203652360131512,-0.43164602111335093,0.3602225910466373
1.1198680566083805,-0.4975302273675571,0.45907702861745814
0.910461736404419,-0.4941873866827164,0.7789148815034032
0.9669473068341738,-0.6654129856761779,0.8157767798352792
0.9671037619423599,-0.7152622791734868,0.9133369686099598
0.8545909315710845,-0.608411194848741,0.9355340111790671
0.7082460503155488,-0.6502597848201674,0.9622876209351305
0.7335201989135268,-0.8628341914656406,0.9423414223098512
0.5981175371917371,-0.7898619578465856,0.8583743403430136
0.5087786532521597,-0.8846641006652857,0.786271978722016
0.3574915722858315,-0.9419436663581053,0.6371826782234503
0.2794902888557316,-0.9697898096071701,0.580111784707964
0.13922429585416443,-0.9825174246468921,0.2685768200816484
-0.05076949486755187,-1.0234505696307525,0.071554410111558
-0.10454882521991297,-1.053172615787854,-0.13174896174633074
-0.223883778520108,-0.9645824294800024,-0.25837316188329623
-0.37456068666282744,-1.0192576685103785,-0.4663381118272726
-0.4352246130908346,-1.0630614506748655,-0.6168843408698453
-0.6268520043028425,-0.851375947857067,-0.8754015489409337
-0.75580727264207,-1.000541637095519,-0.8304316271451065
-0.701799898240015,-0.8334337575671948,-1.04168830433958
-0.8228385344145219,-0.8709319421638475,-0.9494308037838366
-0.9447558428416443,-0.8920028152786069,-0.9985826111155308
-0.9432014105977743,-0.8500582634074635,-0.9284039523352456
-0.9284455618133305,-0.8755499937271086,-0.7584670911889733
-0.9665775968822421,-0.6878698841267963,-0.6743705639960152
-0.9752764829975313,-0.6923145763062628,-0.5211307233875978
-1.018213841409687,-0.5937793375490849,-0.2526080030176774
-0.8336421192163905,-0.5417914786533501,-0.11692736938042253
-0.9782224004122361,-0.4617836951658853,0.0888442993847544
-0.8398626712080859,-0.4277183423112906,0.32404650208026486
-0.8069261134819029,-0.36620576914108666,0.4901371400020864
-0.7284690420183155,-0.22425903003132255,0.7265641022156393
-0.6098165080400263,-0.18933283075518398,0.8550339870721955
-0.5411178965211767,-0.13502550523886384,0.9250393835274157
-0.2753448965982236,-0.08391159877200736,0.8660163105108293
-0.2609460522824094,0.09362217373980039,1.0225885929007357
-0.14023522242310235,0.1487125755272068,0.9302919452975124
0.1001318313009306,0.22339741996931348,0.8758416951587551
0.12905256011667218,0.2671579717745108,0.7908574939639945
0.27253381827400786,0.37939379989136,0.6641853987825905
0.352346529096969,0.4826890874275841,0.39363360489836025
0.5077951934795674,0.5379052912873264,0.3501212813880058
0.5684829106946698,0.49761783417467814,0.17895315811523765
0.7204327396586926,0.6976156952185738,-0.0381055431022924
0.7306534779148425,0.7215247699171914,-0.33685967359454694
0.8543786632759662,0.7085442489694256,-0.4755631615679792
0.9212404258728057,0.8316228227546565,-0.6317943637486426
0.9516446800639937,0.7441984358413093,-0.8928265406261929
1.0109586117578855,0.8931051684546291,-0.9427203665290147
0.903082584056659,0.9189848229141244,-0.9912575230662385
1.0153681977829077,0.8891690473204804,-0.966172152653411
0.9825064234168527,1.0187607242504497,-0.952908499896937
0.903879887315026,1.0234142350823463,-0.859391603277973
0.863644471703285,0.9507418015891528,-0.8609786145710489
0.7384062024543041,1.0328090242156298,-0.760262929015894
0.7377300823665663,0.9859084603384003,-0.46693306061441786
0.7297233963412146,1.0041035131594653,-0.33701623452575663
0.6727183536390534,1.0046694356707613,-0.08431989669555737
0.4767593498560986,0.9737476556099294,0.11324899514555392
0.32794302866683694,0.8796431833811309,0.3644607996540798
0.2014604474694489,0.9576075672388504,0.44720718490092515
0.13073102919039448,0.8669080381758297,0.6683769205704881
0.03432632187910658,0.7693599990365538,0.81872448665974
-0.08124956566049982,0.8074836842072262,0.8033434173739459
-0.2942346405883643,0.6704072351706677,1.0333615992584382
-0.28082451071881387,0.7311190813110686,0.9660325297440333
-0.46273087907122845,0.5392636236910967,0.9858168202550343
-0.6231100543453971,0.515510432715937,0.9960784076735365
-0.7016093891642423,0.4752028057313909,0.8016595522194393
-0.7403022751474004,0.4211690807974704,0.698975375106666
-0.8204980969583117,0.24141891577045604,0.5800858618150206
-0.9659914378863644,0.16580355018540566,0.30785719989077936
-1.0017281398941005,0.19822481465364367,0.010483399069994459
-0.9321653990021906,0.002826943271239432,-0.1904983300611763
-1.020069510643852,-0.021458633094038143,-0.3585733635090738
-1.0842169401987507,-0.04076707277761413,-0.5848831174545992
-0.927767488092442,-0.1909550906288061,-0.6026280775966749
-1.0184342071207848,-0.2690763573920354,-0.8377887527696948
-0.9113908465848786,-0.244555501619317,-0.9490862011378408
-0.8360620838592502,-0.36291593441939435,-0.9759952108980517
-0.7315716879037407,-0.48911866895112566,-1.1035099861881934
-0.6269409496796562,-0.4501689484809829,-0.9841818542032374
-0.6518190561392212,-0.5237053802383029,-0.8852841031474797
-0.5428329394327631,-0.6700039369985986,-0.8543619888631961
-0.32239916132634794,-0.7124597284151747,-0.7077595877389968
-0.2573914729091407,-0.754574903645651,-0.5515334188037073
-0.08202525145405427,-0.7940899119127196,-0.29877657422327913
0.0020045218996159377,-0.8234462098000384,-0.10587457332342727
0.21311090706403263,-0.9628012178433623,0.09570695240680094
0.27497029503536613,-0.8051260105941419,0.3427338372758664
0.3764600198295657,-1.0286738630713006,0.47636513415940573
0.5332278935703318,-1.0373983530646989,0.6991566869115287
0.623847367892922,-0.9846246613635095,0.8976168551715503
0.6159696260820886,-0.9323457527416003,0.8899992610965215
0.7395515133845472,-0.9962688850916711,0.9134866590166072
0.8273971506654405,-1.0200164882460117,1.0603044351021378
0.8651411881270459,-0.9897991993300691,0.9376644276667361
1.0042355217878458,-0.9164709587365324,0.8959473789200965
0.9219067238421802,-1.0212758526165273,0.8081119642107537
0.9876440446171044,-0.9606647224413418,0.7118315117562315
1.0147718787915199,-0.9252868885016149,0.5325894527056364
0.9847623114628796,-0.8842596940124164,0.29990727682203483
0.9261942839570876,-0.7449230475463302,0.1103751363808143
0.9277507751937422,-0.7446721079158984,-0.19040651316776314
0.8430758519393061,-0.7589909731629657,-0.35779420278273905
0.729576737202085,-0.7180118331507791,-0.5347064975067461
0.6454698969132353,-0.6464750445101355,-0.7359369588020477
0.5598357507168867,-0.48045603826789196,-0.816200545361488
0.4616590355820835,-0.4641253121701518,-0.936820172524218
0.5192644661244754,-0.44711435819341877,-0.9605653550141952
0.30171878643834443,-0.42253916276147235,-0.9775731635560649
0.10625350687469334,-0.2599817194321863,-0.982749865986584
0.03992492693153933,-0.3081069904762677,-0.8813615060404748
-0.12901999486500712,-0.05369595582688444,-0.7431280665440126
-0.19508823928756217,-0.029355036778905726,-0.627567773474453
-0.32046668012843976,0.09930185983270089,-0.5517498983045579
-0.5600732994196889,0.15693616128974397,-0.3319841143436481
-0.5535648233826926,0.28510458031148084,-0.15052954154143539
-0.6649539283474503,0.22121470926127756,0.007285487273636468
-0.7678822038337922,0.3964448795651158,0.28587018121489877
-0.8143978041872781,0.4085412320371208,0.508433074011561
-0.86421499588418,0.5348369408043233,0.6181058700094986
-0.9279142141330842,0.5905478093788851,0.863444327317805
-0.899450763328441,0.5918902614164514,0.8844027111327786
-1.0160599614173793,0.6358812678397364,0.9157233262629713
-0.9570426976725449,0.7005707739850064,1.0269619184363727
-0.8889541654757992,0.8226045923641098,1.0247666458347147
-1.0885272883867931,0.8370429424598329,0.9100410548950723
-0.9391513771132907,0.940719957876359,0.7728567099142342
-0.8301911578878794,0.9543481016294053,0.6538936420547656
-0.6982882969601996,0.9426841976736275,0.44445347677861446
-0.7037481462528697,0.9417401222352788,0.264571069137346
-0.5427805167829577,0.9417041238631432,0.054126610543181165
-0.6129534167377044,1.0587908345175008,-0.0172789094061319
-0.35501626748271614,1.0659225268384092,-0.24219989867727876
-0.33529634882610815,1.0019417824721892,-0.4675636656544596
-0.06855492563625021,1.0029958001899784,-0.6316577621068789
0.01936173416600654,1.027490008972793,-0.866834980482198
0.10270760440997408,0.9623122600683404,-0.9567043763096637
0.27911596284896645,0.8788417714099981,-0.9657522088249056
0.3416121125099313,0.8338569603120134,-0.9959603501307579
0.38659715829647895,0.8354080800302988,-0.9906053236484047
0.5093991784970862,0.8231231737441445,-0.8663948626089879
0.6817236395919729,0.7896506506581137,-0.8675149218699647
0.7824162288334768,0.7634911997474015,-0.6552082521121362
0.7767512711097896,0.6609589104668103,-0.42260048288695506
0.8306879792790957,0.6193261758101187,-0.228842775121188
0.9858525862410978,0.542620828661966,-0.07278397406481442
0.9371467263527334,0.4958701681405039,0.1343902492383625
0.9613758444118966,0.43271377836449626,0.2909176817694045
0.9511923041553548,0.38075547577773783,0.484926330801483
0.8990046450375858,0.2017621041485787,0.6063909127477042
0.8992335069104268,0.1138496344969257,0.8042655902928383
0.9039177723820357,0.07725323539719062,0.8905778536679162
0.8678129002517397,-0.007905334910328802,1.0291973945922994
0.7782474642103958,-0.020168229031878857,0.9783683046400868
0.7090382429770281,-0.12008252050693186,1.0203635876651826
0.6414191237606055,-0.19031902899510325,0.9245522481518832
0.45012190929758633,-0.3090661332687177,0.7732671445566317
0.4711823960990604,-0.4417782913102974,0.5416897824777005
0.2682073103397513,-0.46640968676354605,0.49228323645418076
0.12017872353284711,-0.45762581216043885,0.34922338085963434
0.06681371207703539,-0.6746010355295246,0.07343085787651389
-0.17080393917445255,-0.5699217748227636,-0.18565318438443357
-0.23787444946651679,-0.8328766992655156,-0.2555382038172272
-0.3804000851010348,-0.7113251558492246,-0.5278926909359609
-0.44911573310988573,-0.7595739528230537,-0.7318968153609337
-0.540093743245676,-0.800648866647439,-0.764841918064054
-0.6355393246322506,-0.8245435419223957,-0.8762524299218793
-0.7113013585958887,-0.9814577131181901,-0.9627906054856306
-0.8640256485917465,-0.9589894792982565,-1.0459646335641664
-0.9794402859192153,-1.088190786008409,-0.9976037391955703
-0.9570223021650128,-0.9558393945406922,-0.9421323300684683
-0.9324487334832419,-1.0348737574440958,-0.8410706092419853
-0.9792077267674131,-0.9721898360959373,-0.6082974508691492
-0.9922792009868797,-1.0140992321657842,-0.5487979529563236
-0.9943442873594103,-0.9812484999165404,-0.25236354492507596
-0.976659247674316,-0.9693098871106166,-0.1578833536459749
-0.9073590519596418,-0.9445545567300652,0.08648752908993095
-0.8160686420838809,-0.9053308070167267,0.3645465992741156
-0.8025220824960608,-0.8628632198058686,0.3490603527656794
-0.681977965713188,-0.9675138158793578,0.6638564669120061
-0.6445982000947215,-0.8106979177914603,0.7726234996081095
-0.528932368166164,-0.774166250052951,0.9208806737769302
-0.43375563020398816,-0.7178552595778432,0.9523416843603181
-0.24800008426698356,-0.6577653986308647,0.9972261157453843
-0.08749964414472089,-0.6080617424355022,1.077818107400025
0.04451566243271121,-0.5119749537101714,0.9820088907869522
0.10701745896328052,-0.44260310273755604,0.7858030675959956
0.18211314545777563,-0.5053210079205971,0.7094361477080984
0.4196493948283915,-0.3295647858519436,0.4010614536311625
0.4428883267057986,-0.1373221271296604,0.322870779427892
0.572314803769326,-0.20087676994741768,0.06181855380147789
0.6820906539572155,-0.08080979025095335,-0.10615171307288206
0.7631792875217043,-0.0630012426370696,-0.3053576788294981
0.8860276772537691,0.024572022368274847,-0.4976534347969734
0.9794904346294243,0.16411057787689504,-0.6587151620201146
0.9035331162648517,0.2743796974050284,-0.7820050190924708
0.9664576867958139,0.2710615555421208,-0.8731576850516942
0.9822869678691079,0.42003928519422906,-0.8435578069657399
1.061906625615645,0.4481843245920698,-0.9611105820754398
0.9732163275172334,0.5275849967112483,-0.9930141022323992
1.0269896675398122,0.5771464927971983,-1.0010477745953428
0.946820094471134,0.7466456695625501,-0.7595566744385509
0.9117132922532848,0.6970080003120938,-0.6131620572254483
0.715498369555923,0.7455330742925448,-0.3747175953229952
0.7207835922812431,0.8508621061966825,-0.29747351253764565
0.538668106535077,0.7449914360920097,-0.11915468217101678
0.4806517636175554,0.8655496135842875,0.1421788746780928
0.36411830230985787,0.8954831026680173,0.4169439398300394
0.20268154017159612,0.8681420765899872,0.5365390604828324
0.09197974162730192,0.9710818126553,0.7074400395235628
-0.028954630939395556,0.9394550658562106,0.865617377009442
-0.06697204448950106,0.9696552020935417,0.984270755767052
-0.26723359122054247,1.0638492533790684,0.9320251845927188
-0.29813223825742174,0.9873612655115283,1.0493462735312071
-0.5798557415008739,0.9420825342493895,0.9202329559402475
-0.5818581584912893,0.9537011496436554,0.8884340849511916
-0.6750243874409824,0.9306965104470342,0.7714005245873172
-0.7477029988007488,0.9488648824204733,0.7478154385893337
-0.9250940867974744,0.9361548773566472,0.40961022781893874
-0.9304693079753512,0.9075113172750532,0.27702674828358603
-0.9941605079845591,0.8776670454586002,0.09913612601238153
-0.9639680964654088,0.7547329500513533,-0.14687234606242022
-1.0819802460850612,0.6923698526646183,-0.366498074051404
-1.024557478925197,0.6464102176947718,-0.5315006905839351
-1.047259254751104,0.5764784779160901,-0.5854474788580357
-0.9489144893268732,0.5675939948478003,-0.6683692639038996
-0.9499282139336623,0.4743242799641288,-0.9074430690062208
-0.8513542146256922,0.35331740074623114,-1.0104517492490563
-0.7358489011694841,0.32200112450374,-1.0151361285199318
-0.6002687913002551,0.3269036755205057,-0.9537428996002362
-0.5174481422340682,0.08448710812403092,-0.9699739706747049
-0.4774474857252692,0.0019068384260902266,-0.8852520105010666
-0.3690566601111794,0.03107262751179049,-0.6180966295482974
-0.2981403144728305,-0.009664657018187923,-0.5563554898636263
-0.12788486975156677,-0.11955985981962106,-0.3090832305854769
0.07912632686059345,-0.20175719747832105,-0.15317198812133648
0.15351738761648104,-0.2985756870374482,0.13707765022551285
0.24691387115834412,-0.38574610943968335,0.2610984232248228
0.3322717768267636,-0.4506185897740771,0.4368970225470494
0.45591236942214247,-0.5518444276607007,0.7053303306229611
0.6299940378684803,-0.5677279893745288,0.8129328053250439
0.737069985868995,-0.6414513759220224,0.7845219163114314
0.7179877945764545,-0.7338541707284414,1.0577488344892512
0.855514414369711,-0.7374518553312286,0.8775655519025607
0.905226251099328,-0.7851524588857569,0.9608499246710844
0.9520929289364898,-0.9014702321005825,0.9120471329779822
0.9567026206494942,-0.9038511828235047,0.7191584502732464
0.9119188194130022,-0.9196540297182653,0.6336613442811642
1.0321224150680304,-1.0119311907368829,0.49403659955417883
0.9964832067068594,-0.9763185805695656,0.34335337923967457
0.9341818684997222,-0.9984569065279266,0.18309651883738282
0.9294126679001194,-0.945235251201707,-0.14473590197567845
0.8260011608911968,-1.0789831803269225,-0.3025055794466087
0.8183404867054385,-1.013669978766935,-0.42945204442131146
0.6878208249110431,-1.0217875256825282,-0.6856268429720296
0.5621254799324883,-1.0405917353058272,-0.8087266821534741
0.517706384604386,-0.8703108219391218,-0.9170688757169811
0.37967328560330926,-0.9621768998028192,-1.0012061438179387
0.21120605074057147,-0.8011828810854467,-1.0533211661308934
0.10543449591312884,-0.8318783282757973,-1.046721971140873
0.048266327884999724,-0.8572766973814269,-0.9688555807685183
-0.10018919199674088,-0.7010646387606833,-0.8498448826362125
-0.27773368412280736,-0.7241688884826517,-0.7103782252011326
-0.3313335316143296,-0.7303374842269564,-0.4820018158832413
-0.4615075525739622,-0.5597664657188254,-0.3028677332607966
-0.6045823111035491,-0.5400691576474405,-0.06776688313353046
-0.7098763289439374,-0.4854325360444279,0.11292901284702966
-0.7723807914210906,-0.3857021894820471,0.3349658470962003
-0.8753625128387946,-0.2764566187840403,0.4872125446633072
-0.9965749220997677,-0.20715474847394577,0.6959752257578182
-1.0180520235259443,-0.19941603083241385,0.8246676327487178
-0.9485834711753132,-0.05721696292851797,0.8891509570146667
-1.060633404718686,0.007759469339225097,1.0807005654249828
-1.007521094896827,0.05078389803497111,0.9229412135182422
-0.9736438215441396,0.17059917481614056,0.9704880032763964
-0.969077988375596,0.336583941645939,0.8769506178849928
-0.8981477679315283,0.3042341448118396,0.8193989418128033
-0.8897137513368555,0.33504724166307864,0.6640967619875322
-0.8911521841351688,0.4638108915870774,0.5002761911706685
-0.6876451783287192,0.4825490932054409,0.34367318331477553
-0.5722214022313779,0.5984894740339493,0.02927689595603973
-0.4856193532729779,0.6077324851893058,-0.07045083522097641
-0.4177067079734507,0.6836541083890062,-0.3923244014919687
-0.16378015228959134,0.7040055603013499,-0.4429821082914299
-0.07557931302335269,0.8158186972065213,-0.7163781026996234
-0.07237449246468937,0.8758568023958322,-0.7570192771360054
0.20890405550246427,0.9226583128160775,-0.9421567252185477
0.335960698103983,0.9548782805609493,-0.9661118610740624
0.2837151506725023,0.8917421854603845,-0.9588656101051907
0.47026192593741883,0.9977171108369883,-1.0460143311947363
0.5702649139023055,1.009440929711801,-0.8665604318249772
0.606408118757472,1.0100662109272958,-0.8265825541520924
0.7607748222252012,1.0375171969932313,-0.6536950991526536
0.9097847796670792,1.0013388686482587,-0.49681802781900475
0.8957676376166651,1.0148871475504673,-0.3521598453335602
0.998309038681814,0.9516964342908221,-0.13229263399786878
0.974275268700529,1.0525898758855412,0.10402751582037972
1.1051717151238296,0.9276783316280316,0.29687469568168556
1.0384333164605266,1.0009387778908008,0.4417449249120467
0.9759555355156595,0.8311520520980223,0.6601594222485154
0.9844909821579403,0.8033037595366543,0.8396122963668835
0.9398696514464602,0.7414692882106099,0.755054140714035
0.8428326832679337,0.7719786994494862,0.9658573720368325
0.7987208033872703,0.693963943243486,1.0069665330349884
0.6774621008890946,0.5653022586339049,0.9431065704260417
0.523172374417963,0.5893768988926538,0.9605028315479238
0.5359679348457762,0.5102386679706443,0.7732262534710772
0.3418533046269524,0.3964270394137827,0.6614356055680881
0.18979225744247996,0.3641775957263467,0.5116913810030426
0.07260281514787296,0.3034697772546412,0.2296848219304607
0.049965956173306125,0.14558064183685968,0.11650585706785305
-0.05485660478714878,0.09444127455388654,-0.10825195729326542
-0.27937377761047344,0.041813169325808586,-0.36992060233125224
-0.42983426831416477,0.011229826907028395,-0.5626257071190413
-0.3947728961142878,-0.1518975312742763,-0.6443306266493215
-0.5512247071626097,-0.21099281025366112,-0.8026565696624146
-0.6310592423249908,-0.23496370346523132,-0.9022483712257734
-0.6810388347770817,-0.27869025953743626,-0.9817905260412501
-0.8685753666105268,-0.4957987394102358,-0.8781715287605809
-0.8171886585121669,-0.550927541374789,-0.8989557727925668
-0.9579538611547436,-0.4981996725481469,-1.019818459558146
-0.942166340333134,-0.6906119597901417,-0.8419853665169407
-1.0008166460593542,-0.6886445808015486,-0.6296936205463739
-0.927705235377182,-0.7540888108881008,-0.5104662441521745
-1.00415507733592,-0.7844230261117348,-0.30482193777954597
-0.9415120844178426,-0.754570924641562,-0.10835300182738986
-0.868907692617491,-0.7250073234408763,0.08519736700225933
-0.8746317967200005,-0.950449697324752,0.3168480183520242
-0.8445660788159811,-0.9352653633382174,0.5183983871406311
-0.7144137681228008,-1.0294531146071113,0.6929674874557489
-0.597150003598524,-0.9888825559551034,0.8264874631321738
-0.43250613393510146,-1.0075119676051343,0.9186742366129216
-0.3274056181668004,-0.9783081747999389,0.9904936420180946
-0.28889375803515494,-1.0074254919203964,1.0314340841517033
-0.2054370429293131,-0.9921047637058101,0.9012379051966837
-0.009698511021764928,-1.0105281204712577,0.9091232050398955
0.19396257797221364,-0.9359005452516854,0.7625183811646716
0.23181844730374887,-0.9009303589262588,0.7047748022668939
0.2766630186073996,-1.0452196587871283,0.4140097627915567
0.5013592589625997,-0.8921537067125893,0.21799530682763718
0.5908105005070732,-0.8767594524434164,0.165984609436868
0.6762950055132079,-0.8215452425311864,-0.13363960958287302
0.6888980285639223,-0.7633318006434082,-0.3520848801711818
0.9714936106940455,-0.7262029626035402,-0.3524973819955204
0.8671786578501401,-0.6805618527713598,-0.6785086023482042
0.9854909300441403,-0.5185568516362757,-0.8629821440349943
1.0119901650365588,-0.4351383240815706,-0.9908221738487797
0.9886636121140158,-0.34367204569295273,-0.8906125217475291
1.0598892671262097,-0.32368510552642926,-0.9915885503241568
0.9636425436940668,-0.18838576961791675,-0.9120231858527048
0.9799405550736666,-0.22474810472679854,-0.9391344745406914
0.909137106667849,-0.09674009664068384,-0.7920375036540498
0.797574602058365,-0.0984133440178189,-0.6772397182743395
0.7994743206994674,0.10723668242877249,-0.5017559693907824
0.6834462821693548,0.14325088911627404,-0.31270309439233
0.6228872325742036,0.26133444836780373,-0.0626352786882289
0.48879508809659244,0.3626225046750118,0.139334288846377
0.4142794891432488,0.4273187605359624,0.33594231222664817
0.29019176554520076,0.4679166619372878,0.5271324457136152
0.14201590618065532,0.4572734766766368,0.6977138902005999
-0.0379232169675911,0.4921994078342162,0.8325600939192155
-0.09831234001766131,0.5522797522750453,1.0539517028279353
-0.2168581374014902,0.7288875867739051,0.9666682972543851
-0.35078765563607145,0.6988007647534884,1.0189488309889267
-0.42354590103810824,0.8287189619820302,0.9917727017395913
-0.6735879815625818,0.8833003882894198,0.854634836526677
-0.6881316647968931,0.9192080618992071,0.9040382351336868
-0.8247980019010623,0.9719469779326473,0.7039668380574091
-0.848583051018253,0.938685197264893,0.4566128491000756
-0.9384916552299575,1.0205177206472036,0.3065158373380066
-0.915371902431636,0.9228870489994861,0.045510091822835295
-0.9369762821472134,1.0043913485082177,-0.08483262448547592
-1.0755342156391652,0.9934606213260542,-0.32470961538533316
-1.0007175231375725,0.9933292437877465,-0.6224629714867399
-1.0004905674358233,0.957336675321965,-0.7062525883926553
-0.8820626342657212,1.045809375333848,-0.83102921442927
-0.9146078323948326,1.0118900244572853,-0.8821725670334095
-0.8480812426334274,0.9570125369323462,-0.8664228826486684
-0.6792958805272497,0.845954193773223,-0.9151289079661273
-0.8170603623783055,0.84565250795713,-0.9760169919445951
-0.47525983153053813,0.8380975714348005,-0.9277231684282808
-0.564447986057297,0.7867646510630194,-0.7213547238553742
-0.32666051850241007,0.6590848060825255,-0.673129313905297
-0.3317023908851169,0.7159841157215945,-0.4966659456249209
-0.17114706981396746,0.5920806533409646,-0.1798469804578839
0.03556491822570167,0.5787611942035328,-0.025091681194005802
0.05976584892489789,0.47316589838241185,0.05283296265885196
0.2685975803584883,0.3219435005348264,0.24991051376403728
0.4128305053018685,0.4392173548093358,0.5268247982794103
0.5163491579309859,0.24380932285619536,0.7590035939553006
0.6051143156198965,0.21723655635214462,0.8513720713406242
0.6647154041705038,0.10844206968193103,0.9507596928119441
0.7467097933020885,-0.007330772025797461,0.9865936427868766
0.7925925720029302,0.04212938496584639,0.9996969196353627
0.858181057495467,-0.18488290725636863,1.0538846079528186
0.9972327253268838,-0.2690139479698117,0.8576701756251868
0.9009497026780019,-0.35026741613230217,0.7933149105170699
1.0206703036162628,-0.33398933648338114,0.7168357495850722
0.9627693915232535,-0.5009601173370186,0.5182099071775714
0.9498298674059821,-0.4713984504234125,0.3539335425172256
0.9480541040143916,-0.5834483369658159,0.11458169158061104
0.9167626729914634,-0.7009020903962768,-0.04428192663869773
0.7913665015260353,-0.6271351415603595,-0.3133598687405388
0.8013744126544964,-0.7527703818623817,-0.6029761853355018
0.6993005697264781,-0.7391684791682223,-0.6824138779092555
0.5451887263278614,-0.842636045005942,-0.8842200890873955
0.3690496822905592,-0.951445203583716,-0.9528813621712605
0.40424789560315233,-0.8662573506945016,-0.9511561055215914
0.27791760913049623,-0.8531683573167925,-0.923360360649071
0.06360773559645533,-0.8983392094703418,-0.9151971086499882
-0.04915322151063156,-0.983514012124169,-0.9751474054595022
-0.09718439553821616,-0.9510823879747845,-0.7460503516095778
-0.3122661021270314,-0.9764466498696939,-0.6571180963394683
-0.4156229742476798,-1.058688367700848,-0.515322672924961
-0.4821882343087662,-0.9101486829740857,-0.32953134365915976
-0.6160985222911038,-0.9483883706952846,-0.0858109079663427
-0.6066641377792197,-0.9237838855943162,0.13295518002603768
-0.7393356984071713,-0.9670019036170171,0.21480162748366552
-0.8898586393392234,-0.7782768309077484,0.4943261003134611
-0.974022604706983,-0.8826138607206461,0.6693319091589585
-1.0053805126306978,-0.8304083418801441,0.751278894095608
-0.9395577545793787,-0.7087072351821124,0.9270726762117294
-1.0480271174051137,-0.6898246742293306,1.079816376889656
-0.9582631811293276,-0.683657231648259,0.9799892464353288
-1.0078687874829293,-0.6030911253438729,1.0929923270472641
-1.0590080972688636,-0.5621694203361156,0.8815358625085435
-0.9287684482000721,-0.46615672334901753,0.8602365948850348
-0.7643030805917748,-0.4198580967846367,0.6549147668060604
-0.7033137598948735,-0.3494165299153608,0.5496851675205706
-0.7414083318279389,-0.18997972117995143,0.2372716483773335
-0.6156147044874116,-0.2343490817958097,0.04882900967981981
-0.5193442290727899,-0.14484355229223905,-0.10178750136199347
-0.27472335056001823,-0.02889513362677252,-0.2529098298014576
-0.3270934467532628,0.06270846019897652,-0.5292710501535463
-0.19500716443600474,0.16964759413787986,-0.6450367756187887
0.010731782063760638,0.13114882262231808,-0.725561538872096
0.1077240136641295,0.27283127474341207,-0.9784261516028168
0.2809792724584479,0.37819485504502787,-1.0479081252357028
0.38912351975703974,0.39776335791279904,-0.9574030915005456
0.473596088994822,0.47144681678179756,-0.9718033152973661
0.6087661228667409,0.574862155981104,-0.863777410216242
0.6828657382600395,0.7022936334343247,-0.8886043823921729
0.8070584731898708,0.6863581252533671,-0.7118023757923491
0.8686145581969421,0.7490027555554506,-0.5068767141017031
0.8611306401744181,0.7170248091994005,-0.27370596530684704
0.9123463292717935,0.8420137632678002,-0.043922368979583785
0.8878450161411298,0.8449682270303676,0.13429008424486452
1.102428331676687,0.8871577831349255,0.32631773649625634
1.0238245186481663,0.9241297904465969,0.5202866877154174
1.041668343599583,0.9964403553196615,0.6349672839556072
0.9869971610808328,0.9514502115083411,0.8397291781948231
0.9504005447670398,0.9359179177402579,0.891057932098084
0.8127685027947746,0.963222880321128,0.9237261786282741
0.6985485846235396,0.9367648160637533,0.9745005423906968
0.6234910890869109,0.9311454512833126,0.9944861639407857
0.5800815284352518,1.0356533435214779,0.8856022822945406
0.5044543436840334,0.9692760578910042,0.833592401494388
0.4197798214945821,0.9123846938511987,0.6213742319652745
0.30599660306393395,0.892759846722341,0.46198040058683315
0.1454900443524502,0.8274962640660578,0.3746856214785917
0.03353171149001381,0.7954682026332652,0.025346277049391103
-0.0718776814892299,0.7037572772671256,-0.03304748096713617
-0.296607658294327,0.6572677728471769,-0.33891562877493364
-0.3699997827497842,0.6631723927279778,-0.5430816073404388
-0.5560613257109452,0.5422199250776853,-0.7204305689592623
-0.6431491952758464,0.4962206058819298,-0.7771700747150402
-0.7562036802535568,0.3958222788390422,-0.9676556693318288
-0.6763218144380407,0.4614341209677847,-0.917474946579856
-0.843654151801306,0.4112353108748191,-0.9437809090494306
-0.8973142262949948,0.31687409200905486,-0.9114330017760162
-1.0039476215116236,0.1512799000331197,-0.9295196745061582
-0.9938499246798319,0.09184792822163423,-0.8203279393703141
-1.0859619945330774,0.0031993557665469553,-0.6297162008992712
-0.9395905517929649,0.012755646528577927,-0.5051175734083535
-0.9906782551023718,-0.13687354277623123,-0.25414219854377035
-0.916534185912193,-0.28222478604583295,-0.10102930550540141
-0.8376062735813502,-0.34613497763432644,0.11839266394963689
-0.8440369086115741,-0.3753944293352593,0.32367258046242886
-0.8111249594037311,-0.4208424070396458,0.5657168098465893
-0.6814487334937924,-0.531157726511426,0.686645299484964
-0.586532031440448,-0.6452234958894016,0.7910380539150478
-0.38437402620527095,-0.6028526802778116,0.8976580401605061
-0.39555379703884663,-0.7096329968103561,0.9598175779296039
-0.24343061091310686,-0.7240782686038653,0.9384597813037733
-0.1666842186699364,-0.7538991602999436,1.0017432929594852
0.10040788325480887,-0.8006244783391347,0.9868154955356462
0.12517107498527769,-0.9398405936408528,0.8046374363818857
0.2485342906734993,-0.8696406307164304,0.6956657563538865
0.3515037971593743,-0.9555972085393677,0.3868649568208215
0.415622724024815,-0.9587713915234305,0.3471175063065994
0.5992230403812844,-0.9544657095985155,0.08191573966124133
0.6520615960921943,-0.9580023020686061,-0.10562647183256207
0.800172294817134,-0.9835503111701644,-0.3509504880331423
0.8581444656086177,-0.9722794127993997,-0.5882453886740862
1.013120596794899,-0.9951756261189773,-0.6510745589806177
1.0130099628467053,-0.9921168962463413,-0.8385385295039941
0.9573218097604257,-0.9664528957749319,-0.9659575807162769
0.8436045313495849,-0.9020708080740435,-1.0012902665487018
0.9507367456675151,-0.8263623700027649,-0.9922200623618297
0.9143707495133975,-0.8470244484353621,-0.9629031459756454
1.0712497490851591,-0.810126045809998,-0.9892416992351792
0.9082536671932954,-0.7807601752627515,-0.7499411109009025
0.7540233066213937,-0.7557878273829155,-0.6876130870856868
0.7347887560371352,-0.6856005338019738,-0.48805849654767325
0.6397757660812987,-0.6371410277095988,-0.39486549156920525
0.585536517171879,-0.6015015510158244,-0.1538632031107192
0.5301712345582008,-0.4941244373803218,0.09590379336108218
0.4879176448979907,-0.3915095395190977,0.27495721314261246
0.21926315296962132,-0.3263426659087199,0.48628775651537587
0.13242088021237614,-0.2598687888059559,0.7811630213939006
0.03175139973677118,-0.18510397042103105,0.8744577317493821
-0.17115105318943102,-0.0814652798939775,0.9006556444450794
-0.3463221374742853,0.03427357838282388,0.9324270928297763
-0.44724959941561754,0.06756363140317778,0.95774983935802
-0.42504488653755057,0.16259458225217965,1.0349815844659087
-0.6175677621875034,0.22146261160517722,0.9305342584016638
-0.6894877587019231,0.32651190992918805,0.7628147505764133
-0.6313430635097982,0.3688106354150606,0.6618858547374462
-0.8494506695276379,0.4130557957031925,0.47040508308169154
-0.8040410949766065,0.5423871886445613,0.2505658458474232
-0.8469393893724984,0.5298259266110538,0.08545634647694986
-0.9416257795060478,0.6102845130358746,-0.07650463677706439
-1.0524438448913032,0.6329822593246954,-0.2656055111522978
-0.9496475964695156,0.733246127050486,-0.5466269355966872
-0.9065674968979724,0.7470560597200275,-0.7422328914936438
-0.8962439582868206,0.8640238159677317,-0.7948109003747699
-0.9727571589803201,0.8892300930343134,-0.931539954583137
-0.859967127164871,0.8575679880045389,-1.0154812566944258
-0.7689411953750217,0.9080882938751862,-0.945964905978862
-0.6457134147016764,0.897479196778073,-1.0221031807817564
-0.5588968564624084,1.0156719210926985,-0.8443319302442982
-0.5760969862525512,0.9720101302745978,-0.9242145393712781
-0.37218904944856,0.9280292801061729,-0.690780422455612
-0.22435187242259227,0.9698825157488191,-0.4760286747491254
-0.05574471817645911,0.886439283722517,-0.35285924388129297
-0.04878667213794158,0.984024226209588,-0.03167388898626268
-0.007796926958284767,0.9353011214814984,0.13681051869520242
0.22857072992475813,0.9423868093770145,0.3816213555839354
0.3948471051659886,0.9195029262398821,0.5204722224591612
0.5181728178096133,0.849149553763097,0.6458525568048801
0.6085842886911134,0.8070963000930766,0.86829289060994
0.6740735214560166,0.8126528817954143,0.901407313539974
0.7209554430082636,0.7841110030253277,0.9628920936785375
0.842305582752009,0.5969122276084715,1.0341566063500593
0.9693540111481546,0.47998589067951664,1.033516208588662
0.9674769749474004,0.5893753205597135,0.940606907227564
0.9590781672679101,0.4574721221439907,0.74089697092294
1.0034586104740293,0.36903672739208704,0.6792777646812858
1.0868018365136423,0.22827106393819388,0.5133789766305418
1.0460524142047498,0.24675647771146456,0.2521089711185364
0.9320677489477741,0.17866745384956198,0.13857645418912262
0.880496283541465,0.08581844412380354,-0.08305447843790184
0.8527092641383643,-0.06896559743922923,-0.41360540524965156
0.7732367751515695,-0.09625376307818245,-0.46754184553144945
0.7551444802749214,-0.07064479268744303,-0.736028390422817
0.5364899304676549,-0.18223165681075887,-0.7855260827655776
0.4894311233399668,-0.27936761241284497,-0.7827372560317767
0.3703045359106733,-0.4039059726915321,-0.9104792486499101
0.17654065685919357,-0.46639989293899586,-0.9911394169659099
0.07153997647577495,-0.49235122422037275,-1.1072393955894542
-0.028107109543844582,-0.600458384153488,-0.8101331108974072
-0.17233570092069128,-0.6525247196913077,-0.7991653344728881
-0.1662206421158886,-0.6435033168349251,-0.5927584141463581
-0.5328502736388621,-0.7605057781147913,-0.45790744966229313
-0.4557249426027228,-0.7518856713483711,-0.36295534427732556
-0.5194754922859645,-0.811909184700337,-0.045514983571597584
-0.734975740592366,-0.9063473355594834,0.10217909509795217
-0.6941859453863011,-0.9942721347506094,0.39788018116042106
-0.8606593898066478,-0.9414479912356368,0.44912565891238226
-0.9641435655763233,-0.962051185245387,0.6264902940972793
-0.9286949881955778,-0.9863195514601978,0.7566595125312442
-0.9946435205092395,-1.0546743832549055,1.0127067077867364
-1.0255806418231388,-1.0213265597069567,0.9517654178941597
-0.9988294175623242,-0.998013899828464,0.9443995649435668
-0.9517150047404345,-1.0056149225730118,0.9472638332293887
-0.8866622971202949,-0.9983524965596866,0.8289092194313239
-0.8908996323371304,-0.8861318517456858,0.8594644632068957
-0.8757012240076121,-0.9058436293725916,0.6265232037019227
-0.6494208392506295,-0.9320867655543243,0.5576154370278513
-0.7221208804985736,-0.8869883229406599,0.22965343648377667
-0.5424921401484681,-0.8004010398518682,0.060964589968308176
-0.42289789433076647,-0.8112795592473734,-0.02241024819275042
-0.3247068405320308,-0.796055916182229,-0.2662566580754819
-0.25602271791709763,-0.6792987275323957,-0.5069741716637628
-0.2065863077310241,-0.5078031350324613,-0.6190242369314386
0.01082708937482313,-0.5014722473507898,-0.8002283964442984
0.09656912596292666,-0.5020267375156282,-0.8812707056759659
0.19662812186558043,-0.3538352154555045,-0.9848407006550434
0.4275347495859452,-0.3306244456539266,-0.9476844728817546
0.5015965590413746,-0.16869232472660736,-0.9637662753990428
0.631990354785701,-0.19297952125677745,-0.9926797214541273
0.6459656723565201,-0.08744319708772862,-0.7024371041825741
0.7459746894678787,0.03985739723249031,-0.6565261003204877
0.8273675210711129,0.1647057295376566,-0.4744034808428893
0.9135234587124726,0.07222088748805129,-0.2282245336495816
0.9851184030504833,0.1751149391644774,-0.16703465076801238
1.0658803676109678,0.3741032663904423,0.19774191595573853
0.9818438487818325,0.38873530703209225,0.29990036517319785
1.0800234418724455,0.32166564038749734,0.5539548420902134
0.9869420914715292,0.48417386519795763,0.7382941609734084
0.9180795556097796,0.623038960950485,0.8305832987946914
0.8704270250970896,0.6221417776262163,0.9299818443786162
0.8263718459301926,0.6975074562400145,0.8467470150938023
0.723986958591519,0.6974858560890511,1.0720986929017244
0.6703943653397965,0.6659765976696149,1.0642660377476223
0.6209918749059954,0.811014962554637,0.9562756897943094
0.3962257542795271,0.905883094396763,0.8467860594634529
0.36974903980422497,0.9395173098299683,0.6247150781349343
0.17882770747863344,0.8688884190772955,0.4427587058646325
0.15930607203580766,0.966117710569043,0.3322808269720058
0.03191650385164909,0.9663574207142905,0.11542272112351736
-0.15861057627665706,0.9050799377609641,-0.07439251429205589
-0.30462621307968474,1.0496110458269143,-0.35391698448151987
-0.35280455646149605,0.9776430054268722,-0.5503193754782822
-0.488383252407557,0.9039899884057278,-0.6237653820179035
-0.5920971965650762,1.010087858390337,-0.7951358306940449
-0.7026492068416412,0.9809457698404072,-0.8774035519751965
-0.744608722607585,1.012455945068379,-0.9777348529131009
-0.7815116877706318,0.888331663115976,-1.048050133978219
-0.893865002666191,0.7483787294993696,-1.0001584349800996
-1.003693213347161,0.7211154092339758,-0.8958761961773514
-0.9293863718018263,0.8902349563643515,-0.7624399127636193
-1.010288564195865,0.756943997816724,-0.6548213400576836
-1.0440611436927403,0.6763481858827832,-0.5517921452346141
-0.9915575752306373,0.6811957533401289,-0.27703787106402505
-0.946267604789312,0.41991910776976354,-0.13373072067653338
-0.9025947113721078,0.4824533962272992,0.17624043993135646
-0.8385185527793297,0.4106601903404359,0.27545756386269316
-0.739698287901038,0.3761445321763581,0.5316465746782071
-0.7691088856738683,0.2541044138538933,0.670425831376284
-0.5616581594333496,0.21462478084299558,0.7601675423909028
-0.48402044725398374,0.13571423547952702,0.9264492582769223
-0.3402367282572693,-0.014545550566590092,0.9675874899791564
-0.2807977397739493,-0.054292079749184034,0.9432350916402236
-0.06712144522199417,-0.025989764705441717,0.9381930615689942
-0.029861642271957995,-0.299318800165703,0.9167431400566833
0.2745350403310686,-0.22731967479057463,0.8891051895695262
0.21135218378282566,-0.3999646433057203,0.6123999330844092
0.2571857412366338,-0.4579888181953145,0.5835439212242232
0.4762027645146479,-0.5477132689843262,0.3573495693289107
0.521312391091773,-0.4692701556022031,0.08404621260097833
0.6493600550083525,-0.6563048388898061,-0.11948351936950713
0.7411950421309598,-0.7322939786302392,-0.3112672316005515
0.726369071955169,-0.7919777160413193,-0.4504065658318791
0.83427081795648,-0.7176514522761573,-0.6424763166815943
1.0155586066692488,-0.7620840654977148,-0.7634124246809494
0.9338680075032152,-0.8570867624533812,-0.9237980507972462
1.066470954106536,-0.8771881069904395,-0.9765233390572473
1.0116050440769075,-0.9329658040871431,-0.8984247052643357
1.0713076170356532,-0.9834976770930283,-0.9469681126200555
0.9269102705015528,-1.1116340441880634,-0.9436107271655366
0.9070136589494631,-0.98427975199325,-0.848478165536423
0.883801629121057,-1.0439376404135376,-0.6422706922360926
0.8366651772683311,-1.044078145088972,-0.46691519551152905
0.8077743092155281,-0.911872353477174,-0.3340792092944874
0.5908691846049257,-1.0474461928931569,-0.050501678119434054
0.5219403590384591,-1.0377630585802007,0.07613944702738659
0.36716612746741994,-0.8376060805200882,0.3261242678462829
0.23713295376883003,-0.8200891190924496,0.4922512217899245
0.15737125965897739,-0.9790990827598189,0.7030106099362764
0.07203476397661476,-0.7717411192337831,0.7969323961864465
-0.07225476868482662,-0.7227591663657481,0.9146874397120268
-0.2068153378188144,-0.6711711905565211,0.9144989987181136
-0.3274257879223679,-0.6895378888578535,1.0266656387210997
-0.4578467544926683,-0.585042478388025,0.9486526836787115
-0.5280111289814017,-0.5711902927067709,0.9438408757828894
-0.6820271296054381,-0.5147602445088508,0.8487242605903934
-0.8509575917697387,-0.3539869474739065,0.543399481150537
-0.8665623220808129,-0.38746773182154415,0.4813653418794556
-0.8498800819775977,-0.2720777125346865,0.3215192928818715
-0.9555455465465458,-0.17638060403965028,0.1829976245612175
-0.9445189293257428,-0.10925737466844451,-0.15351596295129585
-0.9860675774707958,-0.11922243769183385,-0.299501723519791
-0.9889868403962804,0.0816184372340418,-0.5415309847575649
-0.9937540172547757,0.17471599375714952,-0.6601617016234259
-1.0285890360954248,0.09597149072186759,-0.7854773502660829
-0.8306937041064802,0.2578316260080181,-0.9613875047543216
-0.8636756302815368,0.29386046287592826,-0.967513502423417
-0.816827484325409,0.41797150696623353,-1.0267403956686558
-0.6890147884077064,0.5183258641483469,-1.0153030928715927
-0.5745475854539569,0.6248931880396534,-0.8631862848184613
-0.4262489765706513,0.6175533816452434,-0.7326640875456701
-0.2937314246454399,0.7306554601132327,-0.650095736615109
-0.27638002087802094,0.7601341046357382,-0.45358734101563225
-0.12591932905492903,0.8882456334009246,-0.37432120407557185
-0.048610010885009027,0.8614979194184162,-0.14225387670387551
0.04962021187903713,0.8020500935836443,0.13744828420277158
0.2398701039430265,0.9043140404797056,0.29512757201824763
0.3089332185553487,1.0327818785642375,0.5209044234292659
0.49471090003448287,1.0184190387996288,0.6175437925274341
0.6065695094778536,0.9169973318666376,0.8835476454825588
0.8256392792389491,0.9953199594438296,0.9573150227724614
0.7188939238462156,0.9671888764453563,0.9612713333918615
0.8784112665180034,1.0721178465813213,1.0455912892194736
0.8942695649449062,0.9718699647031277,0.9570012641831659
0.9572079768818533,0.9932460166716847,0.9454229144555922
1.1420669007901842,1.0302456568592009,0.8058256532648135
1.0311354484108355,1.0016108726968562,0.5904269480125611
1.0032863914272545,0.862178239548887,0.5443419701547597
0.962260294126263,0.8912453683368474,0.3279419579098653
0.947421073479705,0.8887369945479859,0.060473746516563585
0.9423013108426844,0.734805312301115,-0.20757397016816465
0.8019905651839818,0.7248550981763071,-0.30660881542788354
0.7605055920516695,0.7018033916533295,-0.5398180972790664
0.7621880075943702,0.5256469117045228,-0.6854689320900692
0.620659686363122,0.6022282951817386,-0.7472869077793408
0.3993041029359077,0.5128297438067053,-0.8854914066805959
0.37138509724346513,0.4821850076380028,-0.9007734052879761
0.27583667623801744,0.35115715828964783,-1.0144099088823004
0.08801530167884272,0.3293317817540106,-1.0044113904678398
0.08746659052678118,0.18976727120610415,-0.8967965301736358
-0.10123588567905746,0.06766058207277498,-0.8520117808654034
-0.22395036612518726,0.005215717539743609,-0.6293165604477277
-0.3856709887031887,-0.06712487624057986,-0.49131135210023796
-0.5864977544980087,-0.10677603143413712,-0.2949468742075941
-0.5995787122281577,-0.18799451761500496,-0.05318295635189378
-0.6147378696693369,-0.2829162606025687,0.055874696208970266
-0.7593496390385419,-0.27282232444803173,0.3291238519832718
-0.7451470316106615,-0.43033566941372314,0.5035300386347761
-0.8501340584071662,-0.543475892177135,0.648977796117466
-1.010580678800784,-0.6213279203490457,0.8478157854297231
-0.9655030530828035,-0.6948865657648884,0.9478432144900047
-1.0335121677915522,-0.7247125659396598,1.0363499871886865
-0.9911210677216057,-0.8327342632270006,0.9944893759225073
-1.038266792777622,-0.7691499416657211,0.9795853025740623
-0.9538453220306292,-0.8633430806858198,0.8456730154118876
-0.9339493741162962,-0.8535874588761138,0.8930416551946314
-0.8893932930075636,-0.8880686882637603,0.6440190114505702
-0.6576361202013133,-0.8810740342321324,0.5019758800333448
-0.6569035348457445,-0.9270761320200627,0.3158128533292243
-0.6252266798168429,-1.0212505097786544,0.08858292442405477
-0.4919167064249644,-1.0045507205506186,-0.03490518321051529
-0.40707988062955136,-0.9614677908103888,-0.3717949353757204
-0.22092992249485288,-0.9560793488973551,-0.5645369555490938
-0.17750634537405974,-1.0942426511264431,-0.6744788109721538
-0.06417608326986941,-0.9337588176109648,-0.8300893785257399
0.1635310280220206,-0.9942508216581095,-0.904724227104142
0.23044609493515866,-0.9315340713247371,-1.070143046627239
0.3575054253874703,-0.7857326669420233,-1.0251650113161894
0.42969952401930694,-0.8325777922437513,-0.9512254221728411
0.6477971342685417,-0.8608533077871705,-0.9121294316475834
0.6479666387772814,-0.7752570267536879,-0.7147546063079457
0.68035415301371,-0.6290170812827668,-0.6202598309787346
0.8874227890597667,-0.6979992676003703,-0.5695236601908674
0.9131903572407339,-0.6368801887556482,-0.31916862684211755
0.966409549226802,-0.5949787979470001,-0.0039042052726573906
0.9732487913054924,-0.4720524473216554,0.19838336569762166
0.9989958048009764,-0.4451417399256721,0.3484555727641382
0.9383949628204455,-0.3166101568341852,0.4452222051429239
1.0614809294886653,-0.20767750525814715,0.6198768679059017
0.9054732647721553,-0.15925173615921778,0.8587354608355116
0.8868852682023499,-0.12115511534777218,0.8848157348869053
0.8227476221843764,-0.09015009401251822,1.0409396504090254
0.7771296461355283,0.08237096828354591,0.996461735668664
0.6962191922654735,0.0703280426216384,0.8919356387010514
0.620075403804008,0.1566739264535507,0.8744963283789707
0.5052911223490579,0.22087213289564836,0.740179710475989
0.36516799322021093,0.353738583179031,0.6329188500563161
0.19587513023650965,0.4920041858547194,0.45612831836040857
0.13478103934959426,0.5196623306938698,0.2828306022291809
-0.06208003651280928,0.5223573303455467,0.08447104311617104
-0.1074436699197965,0.6222530197359314,-0.08871895925686553
-0.27940391119913144,0.7220265856068893,-0.42859945672743593
-0.3268306665083689,0.6951694115012181,-0.4696849125215767
-0.381683156566061,0.7478103876536627,-0.6885294795692978
-0.5671787100382876,0.8364563875936074,-0.7992573940930192
-0.7574833432845247,0.8518703248041606,-0.8689788807362526
-0.8356550004296509,0.9308962074483599,-0.9887331718422104
-0.8666305010300487,1.019160145425066,-0.9851328890178354
-0.8974982938197065,1.0643871970755001,-0.9501683672072188
-0.9633905718708083,1.009329188015528,-0.9442692980627169
-0.9239039962393826,0.938276763670235,-0.751076768004398
-0.9648063229578405,1.042936029119742,-0.5666349239512198
-0.9527563272184775,0.9464371374521086,-0.49569187771120815
-0.9672112512616259,0.9443070779759819,-0.29780757140927827
-0.9259951859056931,0.9154850739153135,-0.09279293501040954
-0.8496402911868808,0.87650145163498,0.17364051166279093
-0.9104289908208908,0.855011303439233,0.3595437253509463
-0.7526646362558735,0.9628206439271745,0.44178899628838664
-0.6404815179721368,0.8299829007697561,0.7307761972066594
-0.6476016635500542,0.8247214231579852,0.8666085158079023
-0.5453438451714943,0.775493722513957,0.9272566019145776
-0.3597930763305309,0.7267730828267313,1.0292159984941738
-0.35487256480404406,0.6410287175375341,0.9464037050966458
-0.14784416917336415,0.6549518310610535,0.9536142982394149
-0.05933084617989894,0.5574403986596834,0.920683609909963
0.11960304329906205,0.3570146378324365,0.8819521025038988
0.21687624189241836,0.4007530047437409,0.61595907949491
0.29767723253540185,0.33064896455001475,0.47115439250864505
0.4921476808768638,0.20158979895393814,0.27418878673716307
0.5169741936641177,0.1409837753709834,0.13816051690866127
0.7363883960083162,0.04625478182484855,-0.10365918831912525
0.805618364553117,0.03481469633096986,-0.31612376628591443
0.8692494849467062,-0.07078735395625899,-0.5184852099132462
0.8761428963366877,-0.03681386001420525,-0.7039593958027429
0.9431636102878176,-0.18405928115540673,-0.9028910127263058
1.0064386717385858,-0.2905141739992913,-0.8974821093180041
1.0370762976951677,-0.3568648203731635,-1.0082893417901417
1.048432893795436,-0.4499115809317928,-1.0163210176561859
0.9613547015825875,-0.5532151633047885,-0.9876776040659402
0.9707423851951887,-0.41325469367141804,-0.8672013339553152
0.9459556596000124,-0.5958113600739439,-0.8267046576996512
0.8276320456903249,-0.6640476851227946,-0.6293598401404126
0.7318463183168864,-0.8122585290219434,-0.4400909514822691
0.7098559786407865,-0.751517162161244,-0.32129930413809765
0.621802771897368,-0.8803917936924394,-0.20475674743827002
0.48879277414432504,-0.8496967779068506,0.035434132202812454
0.3788497079835944,-0.9876295975579663,0.285418431577184
0.3423758552400147,-0.973509830202846,0.5301603341753277
0.07556995765235974,-1.0256450644656296,0.6207128055964408
0.1113849108876917,-1.010211095263933,0.8044738309765106
-0.22326277206624637,-1.0510257868118962,0.9853069628370562
-0.2129745178246224,-1.0666085843132629,1.0050614559068185
-0.4062837979685025,-0.9269533232075903,0.9901068185707936
-0.46196289595497636,-0.8959946323240472,1.0008163456037857
-0.5870068215179348,-0.9520417677664074,0.9840302355800551
-0.6686142297001753,-0.9734048634254646,0.7992571707048968
-0.7729651535635531,-0.8736082320377746,0.6758295887522394
-0.877087417247743,-0.951346527574029,0.4689249413927261
-0.8797697541331206,-0.823055608416653,0.29301238602420293
-0.9854083959847197,-0.8907731382267403,0.07439207753509479
-0.9876649035049981,-0.8025769298744307,-0.12249877428366854
-0.9772363667599876,-0.6653122788869686,-0.32583016395421527
-1.0384088281900699,-0.7326752263547169,-0.4671761579756287
-0.9713877757521281,-0.5470056254152224,-0.6724378351022394
-0.9218597363758985,-0.5126913315692773,-0.8464479628486962
-0.924355966260704,-0.47164550785710774,-0.918832037810909
-0.8772893639146401,-0.3777878679110943,-1.0275431496234568
-0.8396887287210315,-0.27323483586290215,-1.0182784479239506
-0.7279119811165176,-0.2759272563086378,-0.9998546385039035
-0.6601151990584704,-0.2768110006488239,-0.907964999570028
-0.43848877969023387,-0.16517901204189545,-0.747282250432055
-0.2735540591701837,0.02445170115262232,-0.5615337737421737
-0.22559249707869228,0.048284443106506744,-0.43273524074346736
-0.05502793676654631,0.16983804405287614,-0.33374255752226845
0.04635925402805127,0.19363881809392497,-0.06795689897397755
0.17220341445210002,0.23335139610035435,0.10161640391551059
0.2863290003670939,0.37914519248596584,0.3366572382075645
0.3080425957498485,0.427647102743805,0.5609501446328081
0.41680704985385153,0.4392631284398644,0.6085127727242617
0.616332888638782,0.6211695356003846,0.7976752792678875
0.6753060768725953,0.6023858196136342,0.9744240447058855
0.7837179250328286,0.765322012778485,0.9304654362950976
0.7597539222612093,0.8590713069318521,0.9695198800241085
0.8659999571111414,0.7982703282486298,0.9675569591258417
1.0414080001795472,0.8323993900097443,0.9925094792421467
0.918192454719002,1.0453325232834887,0.799465487853974
0.9629783791233264,0.8991462012406328,0.6975993415040016
0.9747497457659973,1.0235982530561054,0.44900766404982834
0.9694683681174006,1.0108451403110106,0.28896670220729154
0.8620336061882347,0.9348136397251026,0.18059384817667912
0.9905901994380479,1.0554942641810923,-0.16209162919509226
0.8783343616498812,0.8834136436298617,-0.35496292256048667
0.7320467864714489,0.928318303694338,-0.5194079995340811
0.7175957423767235,1.0826418489983414,-0.7278403105087415
0.6041886247815331,1.1281332115871208,-0.8731560734401335
0.522021848674708,0.9401849261616726,-0.9209631842117701
0.39720314116880084,0.9365132502185799,-1.0179925145999982
0.28921361361311365,0.9529034613836691,-0.9746407456526072
0.1771554964296603,0.9190314319164049,-0.8868210729807569
-0.017983883456221553,0.8179345234887611,-0.9526930486883998
-0.1462575876620697,0.8167481641360801,-0.8180587761073979
-0.24009824186392487,0.7491725312136774,-0.6662357653358498
-0.33234120240857634,0.674970830020061,-0.5597977458949703
-0.39185401577038226,0.6249347213746073,-0.27109412470123145
-0.5954956187832614,0.47116983900635334,-0.10566700971707729
-0.7749162677875933,0.3638061193889267,0.07697572024781349
-0.7446060215303296,0.3455128758045838,0.2173587724884514
-0.8525853850089835,0.2764588676533619,0.5777141192772051
-0.929404436144142,0.17481659210868722,0.6524771736658417
-0.9606042035888407,0.1725158936992402,0.8153971346495015
-0.9600038116920903,0.017733306683352643,0.9497801496513402
-1.0143111618324157,0.056555402316697714,1.0259793676053213
-1.063453474327255,-0.06483930536289875,0.999146912829625
-1.0449535926365177,-0.14657491019483812,0.9350976536648068
-0.9462306058061453,-0.21232096817663604,0.9491164714696845
-0.8705351100004277,-0.2833233439300968,0.8932619565644937
-0.955909672316755,-0.35607434408084093,0.6369035778010396
-0.794111427836576,-0.34007258029012505,0.4950928615569504
-0.6934539887406082,-0.5046497030247923,0.25610763363681477
-0.681436414838844,-0.589650363537586,0.0808618755347175
-0.5011763052467679,-0.5792025765818747,-0.11268301074375922
-0.3836543474052451,-0.6489171488529719,-0.34526744053377434
-0.2530107247165556,-0.7700993075205127,-0.5639051021158454
-0.15990835381474,-0.7926269590921532,-0.6735929337555757
